TimeStamp(epoch),mAccelerometerMagnitude(m/s^2),mAccelerometerX(m/s^2),mAccelerometerY(m/s^2),mAccelerometerZ(m/s^2),mGyroscopeMagnitude(rad/s),mGyroscopeX(rad/s),mGyroscopeY(rad/s),mGyroscopeZ(rad/s) 
1566316313730, 10.283057, 2.7758276, 3.3051271, 9.333391, 0.2130156, -0.096939065, -0.16724652, -0.08948222
1566316313734, 9.513933, 1.6357985, 3.05844, 8.859178, 0.20815223, -0.068176925, -0.18961707, -0.05219796
1566316313737, 9.609216, 1.6094532, 3.06323, 8.964559, 0.21570487, -0.043675844, -0.20772657, -0.03834952
1566316313745, 9.531235, 1.7699195, 3.05844, 8.851993, 0.24233302, -0.011717909, -0.24181503, -0.010652645
1566316313745, 9.479226, 1.7627344, 3.1278956, 8.772957, 0.27226418, 0.0031957934, -0.27164245, 0.018109497
1566316313758, 9.348471, 1.7555494, 3.3290772, 8.557405, 0.291581, 0.0063915867, -0.28868666, 0.040480047
1566316313758, 9.17532, 1.7004639, 3.3147073, 8.384964, 0.315005, 0.024501082, -0.30679616, 0.06711166
1566316313768, 9.070569, 1.7986598, 3.3171022, 8.248447, 0.32490566, 0.015978966, -0.3153183, 0.07669904
1566316313768, 9.020575, 1.8968556, 3.420088, 8.128696, 0.32508722, -0.002130529, -0.3089267, 0.101200126
1566316313777, 8.777799, 1.8896705, 3.4248781, 7.8580594, 0.33888638, -0.015978966, -0.31638354, 0.12037488
1566316313778, 8.50842, 1.8274, 3.3673975, 7.5970025, 0.34014145, -0.051132694, -0.30786142, 0.13528858
1566316313788, 8.322733, 1.7603394, 3.412903, 7.3838453, 0.36105236, -0.084155895, -0.314253, 0.15659387
1566316313788, 8.271699, 1.8992506, 3.4608033, 7.2688847, 0.3873185, -0.128897, -0.31957933, 0.1768339
1566316313798, 7.6326833, 1.9184108, 3.4344583, 6.5407987, 0.43766037, -0.18642128, -0.350472, 0.18429075
1566316313799, 8.802131, 2.179468, 3.5685792, 7.7454934, 0.46042725, -0.21731395, -0.36112466, 0.18535602
1566316313807, 8.224967, 2.3423293, 3.5661843, 7.031778, 0.49254403, -0.26844665, -0.37710363, 0.16831179
1566316313808, 8.559069, 2.5866213, 3.5757644, 7.33355, 0.5201349, -0.30466563, -0.3930826, 0.15233281
1566316313818, 9.026126, 2.7494826, 3.6907253, 7.7646537, 0.54275614, -0.35473305, -0.3930826, 0.11930962
1566316313818, 8.626793, 2.9458742, 3.66438, 7.2329593, 0.55679303, -0.37816888, -0.4016047, 0.07563378
1566316313828, 9.755472, 3.163821, 3.7098854, 8.449629, 0.5447013, -0.38029942, -0.3888215, 0.029827405
1566316313828, 8.945728, 3.0991554, 3.6452198, 7.558682, 0.5577898, -0.3888215, -0.39947417, -0.01917476
1566316313839, 9.991975, 3.051255, 3.6021094, 8.806487, 0.5346843, -0.37816888, -0.37390783, -0.05539375
1566316313839, 9.091539, 2.7782228, 3.4991236, 7.917935, 0.5292649, -0.36964676, -0.3685815, -0.08735169
1566316313848, 9.538159, 2.7303224, 3.5110989, 8.4376545, 0.5330614, -0.3717773, -0.36325517, -0.11824436
1566316313848, 9.4137125, 2.4668703, 3.5757644, 8.351434, 0.52424544, -0.37710363, -0.33768883, -0.13635385
1566316313858, 8.754011, 2.311194, 3.4536183, 7.704778, 0.5373675, -0.3920173, -0.34088463, -0.13741912
1566316313859, 9.653538, 2.1722827, 3.5254688, 8.720266, 0.5326493, -0.40906155, -0.30253512, -0.15765914
1566316313868, 8.663618, 2.0525317, 3.4584084, 7.673643, 0.547605, -0.41971418, -0.30999196, -0.16618125
1566316313869, 9.995079, 1.9375709, 3.420088, 9.189691, 0.5181228, -0.4016047, -0.2727077, -0.18109496
1566316313879, 8.934073, 1.7579445, 3.3051271, 8.111932, 0.5143628, -0.4048005, -0.26631612, -0.17257284
1566316313879, 9.769305, 1.7771046, 3.2859669, 9.026829, 0.48971006, -0.38242993, -0.25033715, -0.17576863
1566316313889, 9.521746, 1.4849122, 3.178191, 8.851993, 0.47673765, -0.37603834, -0.25033715, -0.15233281
1566316313890, 9.383566, 1.4034815, 3.0608351, 8.758587, 0.45126745, -0.34301516, -0.25672874, -0.14168017
1566316313899, 9.616296, 1.3124708, 3.051255, 9.024434, 0.44993773, -0.3270362, -0.28229508, -0.1257012
1566316313900, 9.983629, 1.1975098, 3.032095, 9.436378, 0.44597062, -0.28868666, -0.32384038, -0.10333065
1566316313910, 10.075694, 1.1112891, 3.0991554, 9.522598, 0.44903392, -0.25885928, -0.35473305, -0.09374327
1566316313910, 10.101127, 1.0753639, 3.1135256, 9.5489435, 0.45076424, -0.22690132, -0.38456047, -0.06178534
1566316313918, 9.993347, 1.1759547, 3.1015503, 9.426797, 0.4749658, -0.20026971, -0.4282363, -0.04580637
1566316313918, 9.977362, 1.4370118, 2.9889846, 9.410032, 0.49137568, -0.18642128, -0.4527374, -0.041545313
1566316313930, 10.003318, 1.575923, 3.1302907, 9.369317, 0.52044356, -0.1768339, -0.4878911, -0.039414786
1566316313931, 9.886704, 1.6932789, 3.046465, 9.251961, 0.55145115, -0.18322548, -0.5187838, -0.037284255
1566316313939, 9.9335785, 1.8753004, 3.0991554, 9.249566, 0.5844896, -0.19707392, -0.5486112, -0.04261058
1566316313940, 9.86402, 2.0046315, 3.1087356, 9.144185, 0.6085355, -0.2247708, -0.56245965, -0.058589544
1566316313950, 9.86068, 2.203418, 3.1111305, 9.093889, 0.6286414, -0.25566345, -0.567786, -0.08628642
1566316313950, 9.813098, 2.3255641, 3.1087356, 9.012459, 0.6455265, -0.29614353, -0.56459016, -0.101200126
1566316313960, 9.979584, 2.5243506, 3.0201197, 9.17053, 0.66373414, -0.33662358, -0.55606806, -0.13422333
1566316313960, 10.1482115, 2.5051906, 2.9650342, 9.376502, 0.6742291, -0.36112466, -0.54648066, -0.15978967
1566316313971, 10.303635, 2.5818312, 2.907554, 9.541759, 0.676718, -0.386691, -0.5219796, -0.18961707
1566316313972, 10.445581, 2.4620802, 2.8907888, 9.730965, 0.658939, -0.39947417, -0.47830373, -0.21411815
1566316313980, 10.633958, 2.4860303, 2.7542725, 9.965676, 0.6229794, -0.39095205, -0.43036684, -0.22370553
1566316313980, 10.854417, 2.4189699, 2.7614577, 10.214759, 0.5865033, -0.37710363, -0.37923414, -0.24074976
1566316313990, 10.978291, 2.335144, 2.6033864, 10.406361, 0.5524493, -0.36432046, -0.32810146, -0.2545982
1566316313991, 11.243952, 2.189048, 2.6009912, 10.717712, 0.4783429, -0.31638354, -0.23435818, -0.27164245
1566316314000, 10.085171, 2.0573218, 2.5363257, 9.541759, 0.43935153, -0.29933932, -0.18642128, -0.26205507
1566316314000, 11.656236, 1.9711012, 2.6441016, 11.179952, 0.38789964, -0.25672874, -0.098004326, -0.27377295
1566316314011, 10.077903, 1.839375, 2.4189699, 9.608819, 0.37669414, -0.2428803, -0.051132694, -0.28336033
1566316314012, 11.242788, 1.7411792, 2.567461, 10.806329, 0.3536052, -0.21092236, 0.015978966, -0.28336033
1566316314020, 10.442683, 1.5304176, 2.565066, 10.0063925, 0.33161393, -0.17044231, 0.06924219, -0.2759035
1566316314021, 10.590902, 1.453777, 2.548301, 10.176438, 0.3288028, -0.13102753, 0.13315806, -0.27057716
1566316314030, 10.632984, 1.2957057, 2.6441016, 10.217154, 0.3327464, -0.09267801, 0.1917476, -0.25566345
1566316314031, 9.644531, 1.1807446, 2.560276, 9.223221, 0.32760477, -0.06498113, 0.20240025, -0.24927188
1566316314041, 10.939854, 0.9508228, 2.668052, 10.566827, 0.33184484, -0.013848438, 0.24074976, -0.22796659
1566316314041, 9.414775, 0.79754156, 2.5530908, 9.026829, 0.3004159, 0.029827405, 0.2247708, -0.19707392
1566316314050, 10.669151, 0.76880133, 2.6608667, 10.303374, 0.30335546, 0.08841695, 0.23329292, -0.17257284
1566316314050, 9.525107, 0.43589357, 2.6057813, 9.15137, 0.28870633, 0.13315806, 0.21198763, -0.1438107
1566316314061, 10.022797, 0.46702883, 2.7710378, 9.620794, 0.29262602, 0.19707392, 0.18642128, -0.10972224
1566316314062, 9.833943, 0.28261232, 2.8500733, 9.407638, 0.29724506, 0.23009712, 0.16192019, -0.0958738
1566316314071, 9.125118, 0.25147706, 2.7830129, 8.686736, 0.28966576, 0.26418558, 0.10013486, -0.06391586
1566316314072, 9.895513, 0.2706372, 2.936294, 9.445957, 0.29099858, 0.2759035, 0.07563378, -0.053263225
1566316314081, 8.388006, 0.27303225, 2.9913795, 7.831714, 0.27463377, 0.2727077, 0.024501082, -0.02130529
1566316314082, 9.589203, 0.26345217, 3.1015503, 9.06994, 0.27391177, 0.2727077, 0.01917476, -0.017044231
1566316314093, 8.216182, 0.13172609, 3.178191, 7.575447, 0.24804427, 0.24607609, -0.03089267, 0.004261058
1566316314093, 8.887642, 0.07424561, 3.3147073, 8.246053, 0.2229357, 0.21518342, -0.05539375, 0.018109497
1566316314102, 8.733031, -0.0047900393, 3.3865578, 8.049661, 0.19663581, 0.17896444, -0.07243799, 0.037284255
1566316314103, 8.589839, -0.021555176, 3.3530276, 7.9083548, 0.18963203, 0.15233281, -0.09161274, 0.066046394
1566316314112, 8.657594, -0.1939966, 3.276387, 8.011341, 0.16764298, 0.10546118, -0.09267801, 0.09161274
1566316314113, 8.613879, -0.059875492, 3.3745828, 7.92512, 0.1733503, 0.053263225, -0.11717909, 0.11611383
1566316314122, 8.731834, -0.050295413, 3.3602126, 8.059241, 0.18571687, 0.008522116, -0.13741912, 0.12463594
1566316314123, 8.878542, -0.045505375, 3.302732, 8.241262, 0.205836, -0.03834952, -0.13422333, 0.15126756
1566316314132, 8.911772, -0.0047900393, 3.391348, 8.241262, 0.2297541, -0.07563378, -0.13422333, 0.17044231
1566316314133, 9.072289, 0.019160157, 3.4464333, 8.392149, 0.2334315, -0.10652645, -0.113983296, 0.1736381
1566316314142, 9.164249, -0.05508545, 3.530259, 8.456815, 0.2789488, -0.14594123, -0.10546118, 0.2130529
1566316314143, 9.297657, 0.06945557, 3.4727786, 8.624466, 0.28647098, -0.1768339, -0.096939065, 0.2034655
1566316314152, 9.400126, 0.06227051, 3.5973196, 8.684341, 0.3151635, -0.20772657, -0.084155895, 0.221575
1566316314153, 9.5178585, 0.07664063, 3.5566041, 8.828042, 0.3327225, -0.22690132, -0.06924219, 0.23329292
1566316314163, 9.667203, 0.17962648, 3.666775, 8.943004, 0.35593227, -0.24927188, -0.07456851, 0.2428803
1566316314163, 9.749031, 0.14849122, 3.6260598, 9.048384, 0.3606278, -0.25033715, -0.07243799, 0.24927188
1566316314173, 9.7931, 0.17004639, 3.5877395, 9.110655, 0.37297496, -0.25885928, -0.07137272, 0.25885928
1566316314173, 9.885212, 0.20357667, 3.6548, 9.182506, 0.37148875, -0.24927188, -0.070307456, 0.26631612
1566316314182, 10.025183, 0.21794678, 3.755391, 9.292676, 0.36863384, -0.25033715, -0.07882957, 0.25885928
1566316314183, 10.075623, 0.32572266, 3.7577858, 9.342972, 0.36663362, -0.24820662, -0.083090626, 0.25672874
1566316314193, 10.167805, 0.33530274, 3.8487966, 9.405242, 0.3767634, -0.25672874, -0.10333065, 0.25566345
1566316314194, 9.774206, 0.35685793, 3.788921, 9.002879, 0.3800621, -0.26738137, -0.10652645, 0.24820662
1566316314203, 9.90498, 0.55803955, 3.8631666, 9.10347, 0.37995312, -0.26631612, -0.13422333, 0.23542345
1566316314204, 10.509461, 0.50534916, 3.9134622, 9.740545, 0.38509274, -0.27803403, -0.12676647, 0.23435818
1566316314213, 9.489667, 0.62989014, 3.7458107, 8.696317, 0.40084955, -0.2908172, -0.1438107, 0.23542345
1566316314214, 10.827979, 0.81191164, 3.8056862, 10.104588, 0.38610655, -0.2972088, -0.11824436, 0.21624869
1566316314223, 9.259387, 0.855022, 3.68354, 8.452024, 0.39796147, -0.31638354, -0.11930962, 0.20985709
1566316314224, 10.562115, 1.0442286, 3.8464015, 9.7812605, 0.40040058, -0.3387541, -0.082025364, 0.19707392
1566316314233, 9.62192, 0.9148975, 3.7218604, 8.825647, 0.42897367, -0.37923414, -0.068176925, 0.18855181
1566316314234, 10.010637, 0.9029224, 3.6907253, 9.261541, 0.4365934, -0.39095205, -0.04261058, 0.18961707
1566316314244, 10.410468, 0.79035646, 3.7218604, 9.690249, 0.46261677, -0.42077947, -0.013848438, 0.1917476
1566316314244, 9.783771, 0.72569096, 3.6021094, 9.067544, 0.47217298, -0.42077947, 0.022370555, 0.2130529
1566316314254, 11.233918, 0.61552006, 3.6332448, 10.612332, 0.47727415, -0.4079963, 0.07350325, 0.23648871
1566316314254, 9.999782, 0.69695073, 3.391348, 9.381292, 0.48042956, -0.39840892, 0.08522116, 0.2545982
1566316314262, 11.549132, 0.7592212, 3.427273, 11.00272, 0.47174382, -0.34940675, 0.13315806, 0.2876214
1566316314263, 10.514615, 0.71371585, 3.3051271, 9.956097, 0.45670164, -0.31638354, 0.15659387, 0.28975195
1566316314273, 11.472127, 0.85741705, 3.4440382, 10.909314, 0.43200117, -0.24820662, 0.17576863, 0.30679616
1566316314274, 11.351955, 0.7592212, 3.4536183, 10.7871685, 0.4339603, -0.20453078, 0.19707392, 0.32810146
1566316314284, 11.007765, 0.91010743, 3.391348, 10.432706, 0.4188183, -0.12996227, 0.19281286, 0.34834146
1566316314284, 11.923724, 0.84544194, 3.6380348, 11.323653, 0.43146628, -0.06924219, 0.20772657, 0.3717773
1566316314294, 10.7385025, 0.87897223, 3.415298, 10.142908, 0.441161, 0.0031957934, 0.19600865, 0.39521313
1566316314295, 10.960319, 1.1160791, 3.3817677, 10.365645, 0.46293187, 0.054328486, 0.2034655, 0.41225734
1566316314304, 10.962252, 1.22625, 3.3865578, 10.35367, 0.4838705, 0.11504856, 0.19600865, 0.42717105
1566316314305, 10.873562, 1.3124708, 3.410508, 10.241104, 0.4956629, 0.15765914, 0.19813919, 0.4261058
1566316314314, 10.453581, 1.331631, 3.4464333, 9.778865, 0.51474655, 0.18961707, 0.20026971, 0.4346279
1566316314315, 10.355142, 1.453777, 3.5757644, 9.608819, 0.52553284, 0.20453078, 0.20879184, 0.43675843
1566316314325, 10.080914, 1.3675562, 3.6116896, 9.311836, 0.54452, 0.21731395, 0.22583607, 0.44528055
1566316314325, 9.878415, 1.4705421, 3.542234, 9.10347, 0.5520712, 0.22264028, 0.2130529, 0.45806372
1566316314335, 9.711607, 1.4274317, 3.6092947, 8.902288, 0.5508756, 0.22050974, 0.20985709, 0.45912898
1566316314335, 9.678647, 1.453777, 3.6859353, 8.830438, 0.5574856, 0.21837921, 0.19068234, 0.47617322
1566316314345, 9.571076, 1.5184424, 3.7314405, 8.681946, 0.55653924, 0.2130529, 0.17150758, 0.48469532
1566316314346, 9.436117, 1.4274317, 3.68354, 8.56938, 0.54473567, 0.2034655, 0.15659387, 0.48043427
1566316314355, 9.456554, 1.575923, 3.7362306, 8.5430355, 0.5325363, 0.19707392, 0.13422333, 0.47617322
1566316314356, 9.491117, 1.6765138, 3.7362306, 8.562195, 0.5183658, 0.18429075, 0.10972224, 0.47191215
1566316314365, 9.516347, 1.7268091, 3.666775, 8.610096, 0.5002911, 0.17789917, 0.07669904, 0.4612595
1566316314366, 9.538549, 1.8202149, 3.7458107, 8.581355, 0.49298042, 0.16724652, 0.0479369, 0.4612595
1566316314376, 9.433008, 1.8824854, 3.65959, 8.487949, 0.46719345, 0.15126756, 0.029827405, 0.44101948
1566316314376, 9.466829, 2.0501368, 3.6955154, 8.471185, 0.44881907, 0.1470065, 0.008522116, 0.42397526
1566316314385, 9.491686, 1.9830762, 3.7242556, 8.502319, 0.43502587, 0.13848437, -0.010652645, 0.41225734
1566316314386, 9.639609, 2.193838, 3.7050953, 8.624466, 0.40807417, 0.12783173, -0.025566347, 0.386691
1566316314396, 10.007649, 2.2417383, 3.66438, 9.038804, 0.3891716, 0.12783173, -0.02876214, 0.36645097
1566316314396, 8.792655, 2.299219, 3.6045046, 7.683223, 0.35490257, 0.111852765, -0.060720075, 0.33129725
1566316314405, 10.178265, 2.5027955, 3.7506008, 9.125025, 0.34388083, 0.12357068, -0.05965481, 0.3153183
1566316314406, 9.637371, 2.4812403, 3.772156, 8.514295, 0.2931878, 0.10972224, -0.07243799, 0.26205507
1566316314416, 9.7002735, 2.6153615, 3.7506008, 8.55501, 0.27022254, 0.11611383, -0.084155895, 0.22903186
1566316314417, 10.196038, 2.579436, 3.8104763, 9.09868, 0.21762182, 0.099069595, -0.066046394, 0.18216023
1566316314426, 9.237438, 2.672842, 3.66438, 8.047266, 0.20206638, 0.08948222, -0.07456851, 0.165116
1566316314427, 10.398237, 2.565066, 3.666775, 9.386082, 0.1654524, 0.084155895, -0.06498113, 0.12676647
1566316314436, 9.133843, 2.579436, 3.6021094, 7.9873905, 0.1341176, 0.056459017, -0.07350325, 0.096939065
1566316314437, 10.162938, 2.6967921, 3.6308498, 9.101074, 0.10379635, 0.043675844, -0.066046394, 0.06711166
1566316314444, 9.279882, 2.579436, 3.642825, 8.135881, 0.08375039, -0.0063915867, -0.07243799, 0.041545313
1566316314444, 9.74177, 2.6464968, 3.6140847, 8.650811, 0.074187085, -0.037284255, -0.0628506, 0.0127831735
1566316314453, 9.744383, 2.5339308, 3.5925295, 8.696317, 0.095642716, -0.082025364, -0.046871636, -0.014913702
1566316314454, 9.316948, 2.6033864, 3.6021094, 8.188572, 0.12930572, -0.10865697, -0.056459017, -0.041545313
1566316314463, 10.408134, 2.5123756, 3.5637891, 9.4507475, 0.15317969, -0.13635385, -0.01917476, -0.06711166
1566316314464, 9.256956, 2.4668703, 3.412903, 8.243657, 0.19024442, -0.16298546, -0.035153728, -0.09161274
1566316314474, 10.684252, 2.5698562, 3.4799635, 9.769285, 0.20280634, -0.17896444, -0.010652645, -0.094808534
1566316314474, 9.704749, 2.5075855, 3.3123121, 8.770562, 0.2342928, -0.20453078, -0.023435818, -0.111852765
1566316314484, 10.684252, 2.6536818, 3.3889527, 9.778865, 0.24018112, -0.19920446, -0.037284255, -0.128897
1566316314484, 10.640109, 2.42376, 3.415298, 9.7812605, 0.24779479, -0.19281286, -0.051132694, -0.1470065
1566316314494, 10.838656, 2.5051906, 3.2620168, 10.027947, 0.2399944, -0.16618125, -0.05539375, -0.16405073
1566316314494, 10.856131, 2.3662794, 3.283572, 10.073453, 0.22612229, -0.13741912, -0.05965481, -0.16937704
1566316314504, 11.122732, 2.339934, 3.2165112, 10.3872, 0.2038472, -0.09374327, -0.06924219, -0.16724652
1566316314506, 11.220315, 2.2249732, 3.1614258, 10.533297, 0.19314805, -0.054328486, -0.07989483, -0.16724652
1566316314514, 10.9369755, 2.090852, 3.0225148, 10.30098, 0.17880265, -0.013848438, -0.07456851, -0.16192019
1566316314515, 10.8680725, 1.9375709, 2.9817994, 10.269844, 0.16545926, 0.0063915867, -0.07137272, -0.14913702
1566316314524, 10.681885, 1.9184108, 3.03928, 10.059082, 0.14699492, 0.017044231, -0.07243799, -0.12676647
1566316314524, 10.477183, 1.83219, 2.9841945, 9.874666, 0.12649763, 0.025566347, -0.053263225, -0.111852765
1566316314534, 10.323005, 1.8513502, 2.9458742, 9.718989, 0.11179189, 0.029827405, -0.026631612, -0.10439592
1566316314535, 10.258133, 1.9208057, 2.9889846, 9.623189, 0.10054765, 0.029827405, 0.0053263223, -0.0958738
1566316314544, 10.0652075, 1.9782863, 2.9817994, 9.407638, 0.08633901, 0.034088463, 0.029827405, -0.07350325
1566316314545, 9.963634, 1.9878663, 3.0608351, 9.271121, 0.08583811, 0.022370555, 0.05752428, -0.05965481
1566316314554, 9.861968, 1.954336, 3.027305, 9.18011, 0.10007251, 0.02130529, 0.08522116, -0.0479369
1566316314555, 9.639818, 1.8800904, 3.0752053, 8.940608, 0.10245386, 0.0, 0.09267801, -0.043675844
1566316314565, 9.585447, 1.947151, 3.1398706, 8.844808, 0.09543485, -0.022370555, 0.08948222, -0.024501082
1566316314565, 9.49724, 1.9136207, 3.1207106, 8.763377, 0.10007817, -0.03089267, 0.094808534, -0.008522116
1566316314574, 9.431901, 1.839375, 3.2069314, 8.677156, 0.10775507, -0.049002163, 0.0958738, -0.004261058
1566316314575, 9.423761, 1.7842896, 3.2141163, 8.677156, 0.10370337, -0.05965481, 0.084155895, 0.010652645
1566316314585, 9.276223, 1.8154249, 3.171006, 8.52627, 0.09685122, -0.06391586, 0.06924219, 0.022370555
1566316314585, 9.183851, 1.839375, 3.2452517, 8.392149, 0.0955715, -0.082025364, 0.040480047, 0.027696876
1566316314595, 9.091582, 1.7914747, 3.2524366, 8.298743, 0.11826835, -0.10759171, 0.010652645, 0.0479369
1566316314596, 9.141567, 1.8082398, 3.2668068, 8.344249, 0.15200095, -0.12783173, -0.049002163, 0.066046394
1566316314605, 9.23168, 2.0118165, 3.2476466, 8.404124, 0.20968129, -0.15765914, -0.12144015, 0.066046394
1566316314606, 9.2190075, 2.076482, 3.2141163, 8.387359, 0.26922545, -0.18216023, -0.18535602, 0.070307456
1566316314615, 9.278144, 2.1219873, 3.278782, 8.416099, 0.36211783, -0.221575, -0.27377295, 0.084155895
1566316314616, 9.34245, 2.189048, 3.1422658, 8.52148, 0.42705283, -0.25353295, -0.3323625, 0.08735169
1566316314625, 9.702149, 2.2920337, 3.0752053, 8.911868, 0.5216316, -0.27483824, -0.43036684, 0.10652645
1566316314626, 9.992962, 2.3878345, 3.04407, 9.21364, 0.576564, -0.29827404, -0.47510794, 0.13315806
1566316314636, 10.278337, 2.4932153, 2.926714, 9.532178, 0.6071428, -0.30360037, -0.5091964, 0.13102753
1566316314636, 10.7667055, 2.6273365, 2.8836036, 10.035132, 0.6129678, -0.28336033, -0.51984906, 0.1587244
1566316314645, 10.95555, 2.6441016, 2.7231374, 10.277029, 0.60142833, -0.25566345, -0.515588, 0.17470337
1566316314646, 11.084316, 2.6393116, 2.6560767, 10.432706, 0.57572985, -0.22264028, -0.49215218, 0.19920446
1566316314656, 11.22133, 2.7973828, 2.5267458, 10.5692215, 0.5363911, -0.18855181, -0.45167214, 0.21944448
1566316314656, 11.32414, 2.7854078, 2.555486, 10.6746025, 0.50954175, -0.15765914, -0.41864893, 0.24394555
1566316314666, 11.142648, 2.6704469, 2.454895, 10.535691, 0.46075737, -0.11824436, -0.36005938, 0.26205507
1566316314666, 11.132164, 2.7806177, 2.42855, 10.502161, 0.4425594, -0.09267801, -0.31851408, 0.29294774
1566316314676, 11.079694, 2.703977, 2.440525, 10.4638405, 0.43500632, -0.056459017, -0.28122982, 0.3270362
1566316314677, 10.896065, 2.6369166, 2.5004005, 10.27224, 0.45650154, -0.051132694, -0.26738137, 0.36645097
1566316314686, 10.736777, 2.6560767, 2.4740553, 10.104588, 0.46643016, -0.04261058, -0.26205507, 0.3834952
1566316314687, 10.6707325, 2.7159522, 2.4836354, 10.015972, 0.47962695, -0.035153728, -0.26631612, 0.39734364
1566316314696, 10.466512, 2.8213332, 2.5171657, 9.759705, 0.49949884, -0.027696876, -0.2790993, 0.4133226
1566316314697, 10.355051, 2.924319, 2.5099807, 9.611214, 0.51478297, -0.03195793, -0.29933932, 0.41758367
1566316314706, 10.261967, 3.1087356, 2.5243506, 9.448353, 0.5144389, -0.040480047, -0.30360037, 0.4133226
1566316314707, 10.167705, 3.187771, 2.5339308, 9.316627, 0.5183418, -0.0479369, -0.32810146, 0.39840892
1566316314716, 10.103141, 3.3290772, 2.5051906, 9.204061, 0.51908666, -0.06498113, -0.3472762, 0.38029942
1566316314717, 10.027332, 3.4703834, 2.4980054, 9.06994, 0.52424544, -0.08841695, -0.36645097, 0.36432046
1566316314726, 9.866801, 3.5087037, 2.4764502, 8.883128, 0.5287286, -0.10546118, -0.3920173, 0.3387541
1566316314727, 9.847395, 3.6548, 2.435735, 8.813672, 0.5383476, -0.13315806, -0.41225734, 0.31957933
1566316314737, 9.750358, 3.652405, 2.4620802, 8.698711, 0.5570559, -0.17044231, -0.43995422, 0.29614353
1566316314737, 9.778207, 3.6045046, 2.3782544, 8.772957, 0.59066486, -0.18855181, -0.49002165, 0.27057716
1566316314747, 9.863711, 3.4847536, 2.4022048, 8.909473, 0.6428948, -0.2130529, -0.5475459, 0.2609898
1566316314748, 10.094714, 3.5015187, 2.454895, 9.144185, 0.7097004, -0.22583607, -0.62744075, 0.2428803
1566316314758, 10.327419, 3.5063088, 2.2561085, 9.448353, 0.78861666, -0.22796659, -0.7233146, 0.21624869
1566316314758, 10.612674, 3.5566041, 2.2273684, 9.74773, 0.84579587, -0.2130529, -0.79255676, 0.20453078
1566316314768, 10.9049425, 3.6236646, 2.1674929, 10.054293, 0.89658886, -0.1768339, -0.85966843, 0.18322548
1566316314768, 11.192821, 3.7266505, 2.059717, 10.3512745, 0.92509, -0.13315806, -0.9012137, 0.16085494
1566316314778, 11.480892, 3.774551, 1.9806812, 10.660233, 0.9489019, -0.070307456, -0.9353022, 0.1438107
1566316314779, 11.752432, 3.9781277, 1.9232007, 10.890154, 0.94222987, -0.0053263223, -0.9374327, 0.094808534
1566316314788, 11.848163, 3.9709425, 1.8130299, 11.014695, 0.9271602, 0.066046394, -0.922519, 0.06498113
1566316314788, 11.877929, 4.129014, 1.7555494, 10.997931, 0.8806709, 0.13102753, -0.87032104, 0.03089267
1566316314798, 11.696783, 3.9781277, 1.5639478, 10.887759, 0.8376833, 0.19387813, -0.8149273, 0.004261058
1566316314799, 11.619675, 4.038003, 1.707649, 10.760823, 0.777157, 0.25992453, -0.7318367, -0.02876214
1566316314807, 11.441224, 4.028423, 1.5998731, 10.588382, 0.70756257, 0.3057309, -0.6359629, -0.05219796
1566316314808, 11.081617, 3.9901028, 1.5783179, 10.217154, 0.65518355, 0.34408042, -0.551807, -0.07989483
1566316314818, 10.901806, 3.8535867, 1.7339942, 10.049502, 0.59348327, 0.36964676, -0.45167214, -0.10759171
1566316314819, 10.49116, 3.7386258, 1.7244141, 9.649534, 0.54176635, 0.38136467, -0.36218992, -0.12996227
1566316314829, 10.1071205, 3.3865578, 1.81782, 9.347761, 0.50235885, 0.39095205, -0.28549087, -0.13422333
1566316314829, 9.695772, 3.187771, 1.8776954, 8.962164, 0.47701254, 0.3888215, -0.221575, -0.165116
1566316314841, 9.510241, 2.9937747, 1.8609302, 8.832832, 0.46445286, 0.3888215, -0.17257284, -0.18642128
1566316314842, 9.338381, 2.929109, 1.8705103, 8.667576, 0.43310437, 0.36112466, -0.15233281, -0.18429075
1566316314848, 9.108111, 2.8524685, 1.9255958, 8.432864, 0.43196964, 0.35473305, -0.13102753, -0.20879184
1566316314849, 8.800574, 2.8093581, 1.9375709, 8.111932, 0.41963577, 0.32810146, -0.12250541, -0.23116238
1566316314859, 8.589066, 2.8548634, 2.1674929, 7.805369, 0.4078864, 0.28229508, -0.13209279, -0.26312032
1566316314860, 8.316332, 2.802173, 2.2129982, 7.510782, 0.41394812, 0.22370553, -0.17257284, -0.30253512
1566316314868, 8.107282, 2.8213332, 2.2824538, 7.2497244, 0.43359536, 0.13741912, -0.20985709, -0.3536678
1566316314869, 7.901323, 2.7901978, 2.4572902, 6.9719024, 0.48231193, 0.035153728, -0.24607609, -0.4133226
1566316314878, 7.7776694, 2.7159522, 2.5985963, 6.809041, 0.5393279, -0.07243799, -0.28229508, -0.45380265
1566316314879, 7.7157125, 2.7063723, 2.567461, 6.7539554, 0.71875197, -0.22050974, -0.47404268, -0.49321744
1566316314889, 7.005557, 2.7063723, 2.3998096, 5.999524, 0.81445444, -0.36112466, -0.45486793, -0.57098174
1566316314889, 7.336225, 2.2106032, 2.8357031, 6.3947024, 0.8389206, -0.48149952, -0.3110572, -0.6125271
1566316314899, 8.01135, 1.575923, 3.0799952, 7.2257743, 0.86357147, -0.5603291, -0.22370553, -0.6178534
1566316314900, 8.548309, 1.6932789, 2.9338992, 7.8484793, 0.9094327, -0.6423545, -0.19813919, -0.6125271
1566316314911, 8.743292, 1.9160157, 2.6105714, 8.121511, 0.98059255, -0.7307714, -0.20453078, -0.62104917
1566316314911, 8.943094, 2.1770728, 2.2297633, 8.382568, 1.0211931, -0.7595336, -0.16405073, -0.6625945
1566316314920, 9.3624325, 1.9232007, 2.208208, 8.892708, 1.0176599, -0.7584683, -0.06498113, -0.67537767
1566316314921, 10.099189, 1.453777, 2.435735, 9.692644, 0.9919414, -0.7350325, 0.04261058, -0.664725
1566316314930, 10.6317, 1.2334352, 2.6129665, 10.2315235, 0.94580907, -0.69348717, 0.11504856, -0.6327671
1566316314931, 10.918318, 1.1831397, 2.550696, 10.550061, 0.8886694, -0.6359629, 0.17150758, -0.5965481
1566316314939, 10.841605, 1.1400293, 2.3327491, 10.526112, 0.8281374, -0.57098174, 0.23009712, -0.5539375
1566316314942, 10.631682, 0.8382569, 1.9591261, 10.41594, 0.7845562, -0.49428272, 0.33129725, -0.5113269
1566316314949, 10.7016325, 0.71371585, 1.7651294, 10.530901, 0.743785, -0.40053943, 0.43995422, -0.4463458
1566316314950, 10.596826, 0.5963599, 1.8561403, 10.41594, 0.7302596, -0.32384038, 0.5273059, -0.38775626
1566316314960, 10.590801, 0.51013917, 1.9902613, 10.389595, 0.7071607, -0.22690132, 0.58269966, -0.330232
1566316314961, 10.4670315, 0.3879932, 2.0812721, 10.250684, 0.6837131, -0.15659387, 0.6103965, -0.26525086
1566316314970, 10.150383, 0.41194338, 2.2824538, 9.881851, 0.6658252, -0.0777643, 0.62744075, -0.20879184
1566316314972, 9.964763, 0.29698244, 2.3926246, 9.6686945, 0.6424649, -0.023435818, 0.62317973, -0.15446335
1566316314979, 9.709244, 0.3424878, 2.2896388, 9.429193, 0.61526287, 0.033023197, 0.60507023, -0.10652645
1566316314980, 9.501658, 0.4742139, 2.2824538, 9.211246, 0.583902, 0.082025364, 0.5752428, -0.05752428
1566316314990, 9.428326, 0.68018556, 2.3758595, 9.09868, 0.5506438, 0.12357068, 0.535828, -0.02876214
1566316314991, 9.430464, 0.80712163, 2.4620802, 9.067544, 0.5406823, 0.16937704, 0.5134575, 0.0031957934
1566316315000, 9.326195, 1.0681788, 2.4644752, 8.931028, 0.5348657, 0.22264028, 0.4857606, 0.023435818
1566316315001, 9.354444, 1.2933106, 2.5985963, 8.892708, 0.52730155, 0.25992453, 0.45699844, 0.040480047
1566316315010, 9.083003, 1.2525953, 2.567461, 8.62207, 0.53268445, 0.29614353, 0.43782368, 0.066046394
1566316315011, 9.027105, 1.4202466, 2.6105714, 8.523875, 0.5419862, 0.31851408, 0.43036684, 0.084155895
1566316315020, 8.856577, 1.4202466, 2.5914114, 8.349038, 0.55119586, 0.34194988, 0.41758367, 0.111852765
1566316315021, 8.705069, 1.2813355, 2.6393116, 8.195757, 0.5656504, 0.34514567, 0.4282363, 0.13209279
1566316315030, 8.512156, 1.2813355, 2.6704469, 7.9802055, 0.5987402, 0.350472, 0.4495416, 0.18322548
1566316315031, 8.372116, 1.4753321, 2.6512868, 7.8029737, 0.6071764, 0.34408042, 0.45060685, 0.21731395
1566316315040, 8.16072, 1.4897022, 2.684817, 7.561077, 0.6026074, 0.31851408, 0.44847634, 0.24607609
1566316315041, 7.9888906, 1.6262183, 2.6608667, 7.3551054, 0.59557426, 0.2876214, 0.43782368, 0.28336033
1566316315050, 7.934922, 1.6525636, 2.687212, 7.2808595, 0.5645751, 0.24714136, 0.39947417, 0.31318775
1566316315051, 7.8654814, 1.8082398, 2.7422974, 7.1467385, 0.5544269, 0.20133498, 0.38242993, 0.3472762
1566316315061, 7.839344, 1.9040406, 2.7207422, 7.101233, 0.5308545, 0.14807177, 0.3334278, 0.38562572
1566316315061, 7.768638, 1.8800904, 2.7087672, 7.0341725, 0.5273759, 0.08948222, 0.29294774, 0.4293016
1566316315070, 7.913367, 2.0309765, 2.6081765, 7.189849, 0.5304397, 0.043675844, 0.25246766, 0.4644553
1566316315070, 8.145696, 2.2441335, 2.579436, 7.3934255, 0.5391764, -0.014913702, 0.21731395, 0.49321744
1566316315081, 8.3883295, 2.5075855, 2.6417067, 7.556287, 0.54711986, -0.051132694, 0.17576863, 0.515588
1566316315083, 8.688505, 2.8764186, 2.4860303, 7.812554, 0.54536754, -0.0777643, 0.14913702, 0.5187838
1566316315093, 9.197717, 3.1925611, 2.6081765, 8.222102, 0.54628235, -0.09054748, 0.12463594, 0.52411014
1566316315095, 9.754158, 3.65959, 2.6057813, 8.657996, 0.5093613, -0.08735169, 0.098004326, 0.49215218
1566316315102, 10.12469, 3.891907, 2.6536818, 8.962164, 0.46984324, -0.07243799, 0.08735169, 0.45593318
1566316315105, 10.411808, 4.2008643, 2.6560767, 9.148975, 0.4245824, -0.0628506, 0.094808534, 0.40906155
1566316315111, 10.729689, 4.509822, 2.6967921, 9.354947, 0.37598404, -0.022370555, 0.112918034, 0.35792887
1566316315112, 10.926826, 4.533772, 2.6488917, 9.582474, 0.33960056, -0.007456851, 0.13848437, 0.30999196
1566316315124, 10.915488, 4.550537, 2.6512868, 9.560919, 0.31549457, 0.018109497, 0.17789917, 0.25992453
1566316315125, 10.9105835, 4.485872, 2.5123756, 9.623189, 0.32779175, 0.04474111, 0.23435818, 0.2247708
1566316315132, 10.672194, 4.2296047, 2.5243506, 9.467513, 0.3453856, 0.051132694, 0.2695119, 0.20985709
1566316315134, 10.484827, 4.0859036, 2.5195606, 9.321417, 0.35574412, 0.05965481, 0.29294774, 0.19281286
1566316315146, 10.191139, 3.8559816, 2.3926246, 9.125025, 0.38543442, 0.056459017, 0.3270362, 0.19600865
1566316315147, 10.093646, 3.6979103, 2.4644752, 9.062755, 0.41870856, 0.046871636, 0.36112466, 0.2066613
1566316315152, 9.891843, 3.4512234, 2.42376, 8.947793, 0.44046077, 0.033023197, 0.3834952, 0.21411815
1566316315153, 9.87667, 3.2284865, 2.4644752, 9.002879, 0.4641938, 0.034088463, 0.39734364, 0.23755397
1566316315164, 9.867779, 3.2811768, 2.4022048, 8.990904, 0.46844754, 0.035153728, 0.39095205, 0.25566345
1566316315165, 9.927364, 3.2045362, 2.435735, 9.074729, 0.47551742, 0.0628506, 0.386691, 0.2695119
1566316315175, 9.97745, 3.271597, 2.3806496, 9.1202345, 0.47171614, 0.07456851, 0.3568636, 0.29933932
1566316315176, 10.105027, 3.2236965, 2.3638844, 9.280701, 0.4609248, 0.10333065, 0.32810146, 0.30679616
1566316315184, 10.198962, 3.3051271, 2.3998096, 9.3453665, 0.4435045, 0.1257012, 0.27696875, 0.32277513
1566316315185, 10.236144, 3.4847536, 2.4884255, 9.297466, 0.4428234, 0.17257284, 0.23329292, 0.33449304
1566316315195, 10.163157, 3.4799635, 2.5339308, 9.206455, 0.44549584, 0.20985709, 0.1917476, 0.34301516
1566316315197, 10.156923, 3.5637891, 2.5051906, 9.175321, 0.4498911, 0.24607609, 0.1555286, 0.34301516
1566316315203, 10.01377, 3.7434156, 2.4812403, 8.950189, 0.4578816, 0.26844665, 0.111852765, 0.3536678
1566316315205, 9.895632, 3.68354, 2.5171657, 8.832832, 0.4717546, 0.30040458, 0.058589544, 0.35899413
1566316315214, 9.659459, 3.8344264, 2.4716604, 8.514295, 0.46733066, 0.30786142, 0.0063915867, 0.35153726
1566316315216, 9.482455, 3.903882, 2.5459058, 8.258028, 0.4612251, 0.3089267, -0.04261058, 0.33981937
1566316315225, 9.44531, 4.014053, 2.5985963, 8.145462, 0.46307895, 0.30999196, -0.09267801, 0.33129725
1566316315227, 9.37034, 4.1721244, 2.6129665, 7.9730206, 0.44088182, 0.2972088, -0.1257012, 0.30040458
1566316315235, 9.490295, 4.409231, 2.6345215, 7.9802055, 0.4201587, 0.28549087, -0.16405073, 0.2609898
1566316315237, 9.599223, 4.5529323, 2.6967921, 8.008945, 0.40043744, 0.26844665, -0.18535602, 0.23222765
1566316315245, 9.423536, 4.502637, 2.567461, 7.8700347, 0.3970451, 0.28122982, -0.19387813, 0.20240025
1566316315247, 9.494913, 4.5816727, 2.459685, 7.94428, 0.37324715, 0.27057716, -0.19707392, 0.165116
1566316315255, 9.504061, 4.567302, 2.42855, 7.9730206, 0.35688904, 0.26525086, -0.19600865, 0.13635385
1566316315257, 9.621085, 4.6822634, 2.3854396, 8.059241, 0.3639964, 0.2876214, -0.19600865, 0.10652645
1566316315265, 9.727501, 4.758904, 2.2800586, 8.171807, 0.36821032, 0.3206446, -0.16724652, 0.06924219
1566316315266, 9.692746, 4.727769, 2.2129982, 8.167017, 0.3830585, 0.350472, -0.15126756, 0.03195793
1566316315275, 9.661051, 4.720584, 2.186653, 8.140672, 0.40034816, 0.38136467, -0.12144015, -0.00958738
1566316315277, 9.347225, 4.5577226, 2.1674929, 7.8676395, 0.42277583, 0.4048005, -0.10972224, -0.053263225
1566316315283, 9.0512495, 4.390071, 2.0333717, 7.6496925, 0.42928308, 0.4101268, -0.10759171, -0.06711166
1566316315285, 8.7942705, 4.311035, 2.1579127, 7.3551054, 0.45049477, 0.42184472, -0.1257012, -0.0958738
1566316315297, 8.45032, 4.071533, 2.0070264, 7.1275783, 0.4442715, 0.40586576, -0.14274544, -0.1107875
1566316315300, 8.118118, 3.8440065, 1.8753004, 6.9000516, 0.4450486, 0.39947417, -0.16405073, -0.10759171
1566316315315, 7.939855, 3.671565, 1.7699195, 6.813831, 0.46220326, 0.40266997, -0.19920446, -0.10865697
1566316315318, 7.7268696, 3.5110989, 1.6118482, 6.6916847, 0.50335073, 0.41758367, -0.26418558, -0.0958738
1566316315320, 7.458244, 3.297942, 1.590293, 6.4976883, 0.5529882, 0.42290998, -0.34514567, -0.08841695
1566316315323, 7.491922, 3.187771, 1.5280225, 6.605464, 0.6578782, 0.45806372, -0.4644553, -0.08522116
1566316315325, 7.3332534, 3.1949563, 1.6453785, 6.3923073, 0.7770226, 0.4676511, -0.6146576, -0.08522116
1566316315330, 7.174955, 3.182981, 1.6765138, 6.207891, 0.91250646, 0.47297743, -0.77444726, -0.0958738
1566316315340, 6.933372, 3.1015503, 1.7651294, 5.944439, 1.0448012, 0.4612595, -0.9321064, -0.10013486
1566316315341, 6.507045, 3.187771, 1.8010547, 5.3792143, 1.154439, 0.43675843, -1.0620687, -0.11824436
1566316315344, 6.201982, 3.2572267, 1.8489552, 4.9433208, 1.2521073, 0.37390783, -1.1877699, -0.13102753
1566316315346, 5.747336, 3.3865578, 1.707649, 4.3182206, 1.339767, 0.30786142, -1.2964269, -0.13954964
1566316315355, 5.392087, 3.300337, 1.6932789, 3.9134622, 1.3503284, 0.20879184, -1.3273195, -0.13422333
1566316315357, 4.876566, 3.2524366, 1.4226416, 3.3434474, 1.323573, 0.098004326, -1.3145363, -0.11930962
1566316315364, 4.826692, 3.427273, 1.1184741, 3.2093263, 1.2934091, -0.026631612, -1.2900352, -0.08948222
1566316315365, 4.5168915, 3.300337, 0.8885523, 2.9530592, 1.2707176, -0.1555286, -1.2591426, -0.07137272
1566316315374, 4.335873, 3.2308815, 0.6227051, 2.823728, 1.2772793, -0.2759035, -1.2463595, -0.043675844
1566316315375, 4.5737877, 3.8368216, 0.1341211, 2.4860303, 1.3804849, -0.45486793, -1.2996227, -0.099069595
1566316315384, 5.2092605, 4.878655, -0.80712163, 1.6381935, 1.5535917, -0.6018744, -1.4242586, -0.15126756
1566316315385, 5.0328126, 3.776946, 0.17004639, 3.3218923, 1.7248018, -0.69774824, -1.5701998, -0.15020229
1566316315399, 5.008479, 3.1015503, 0.97237796, 3.8104763, 2.095721, -0.75633776, -1.9483687, -0.15446335
1566316315400, 6.0248604, 5.096602, 0.847837, 3.0991554, 2.3669825, -0.8564726, -2.198706, -0.18642128
1566316315405, 5.285513, 4.533772, 0.5604346, 2.6584718, 2.577846, -0.902279, -2.4053671, -0.2130529
1566316315407, 5.4640546, 3.6092947, 0.366438, 4.0859036, 2.7362208, -0.902279, -2.5758095, -0.1949434
1566316315415, 6.2284384, 2.8788135, 0.17244141, 5.52052, 2.8092892, -0.850081, -2.674879, -0.12037488
1566316315416, 6.5677567, 3.0847852, -0.16286133, 5.7959476, 2.8890147, -0.7957525, -2.7771444, -0.025566347
1566316315428, 7.0827436, 3.8104763, -0.84065187, 5.910908, 3.0241957, -0.7414241, -2.9316077, 0.041545313
1566316315429, 7.512263, 4.1984696, -1.3196558, 6.08814, 3.1511514, -0.680704, -3.0754185, 0.09054748
1566316315435, 7.7347345, 4.7229786, -1.6669337, 5.894143, 3.253485, -0.6018744, -3.1957934, 0.099069595
1566316315436, 7.7205706, 4.91937, -1.6669337, 5.712122, 3.332317, -0.50600064, -3.2927325, 0.07882957
1566316315446, 7.4761934, 4.8834453, -1.585503, 5.4342995, 3.4109747, -0.44741106, -3.3811493, 0.049002163
1566316315447, 6.9294286, 4.6128078, -1.2597803, 5.015171, 3.4769237, -0.4282363, -3.4503915, 0.020240024
1566316315455, 6.2550545, 4.2511597, -1.0394385, 4.4691067, 3.5218656, -0.43995422, -3.4940674, 0.03834952
1566316315461, 5.3684154, 3.8823268, -0.90771246, 3.5949244, 3.5452368, -0.47723848, -3.512177, 0.07456851
1566316315465, 4.6722927, 3.5206788, -1.0250684, 2.8955786, 3.5402508, -0.551807, -3.4940674, 0.14274544
1566316315467, 4.307923, 3.4464333, -1.1759547, 2.3016138, 3.4648457, -0.6306366, -3.4013894, 0.1949434
1566316315480, 4.1576867, 3.4847536, -1.585503, 1.6214283, 3.3242412, -0.71798825, -3.2362735, 0.24820662
1566316315482, 3.8268824, 3.2141163, -1.7842896, 1.0633887, 3.145117, -0.8309063, -3.016829, 0.31638354
1566316315485, 3.6969957, 3.1255007, -1.8537452, 0.68018556, 3.0239346, -0.95234644, -2.8410604, 0.406931
1566316315486, 3.4831805, 2.8620484, -1.9160157, 0.51971924, 2.9833467, -1.0823087, -2.7334685, 0.5070659
1566316315495, 3.582136, 2.8740237, -2.0932472, 0.43589357, 3.0491722, -1.2090752, -2.7260118, 0.6359629
1566316315498, 3.5687442, 2.7351124, -2.215393, 0.5891748, 3.1873002, -1.3454291, -2.787797, 0.7595336
1566316315506, 3.6443124, 2.5411158, -2.4980054, 0.76401126, 3.3380075, -1.4455639, -2.871953, 0.8969527
1566316315508, 3.6540387, 2.2537134, -2.7111623, 0.96040285, 3.5194647, -1.5446335, -2.98061, 1.0567423
1566316315516, 3.7336888, 1.9950514, -2.9913795, 1.0059083, 3.7199748, -1.623463, -3.106311, 1.2463595
1566316315517, 4.003558, 1.8513502, -3.3123121, 1.2765454, 3.9624774, -1.695901, -3.274623, 1.4498249
1566316315527, 4.346496, 1.8226099, -3.7074904, 1.3507911, 4.197115, -1.7598169, -3.4205642, 1.6788567
1566316315528, 4.939788, 1.9950514, -4.397256, 1.0418335, 4.4693, -1.8429075, -3.6048548, 1.892975
1566316315536, 5.9550767, 2.6393116, -5.2283278, 1.0777588, 4.766684, -1.9057581, -3.8402784, 2.0836573
1566316315537, 6.9430165, 3.788921, -5.745652, 0.9148975, 5.046763, -2.0026972, -4.076767, 2.1997712
1566316315546, 7.9719105, 4.888235, -6.239026, 0.855022, 5.3807592, -2.0751352, -4.41126, 2.2775354
1566316315548, 8.985638, 5.726492, -6.799461, 1.3100758, 5.689213, -2.1124194, -4.743623, 2.324407
1566316315556, 9.387087, 5.7911572, -7.2808595, 1.2525953, 5.9462085, -2.1528995, -4.999286, 2.3936493
1566316315558, 9.499214, 5.4678297, -7.711963, 0.92926764, 6.1549478, -2.2125542, -5.1707935, 2.5001757
1566316315566, 9.4288435, 4.86189, -8.042476, 0.76401126, 6.3430443, -2.2903185, -5.273059, 2.6802053
1566316315567, 9.624242, 4.5744877, -8.4448395, 0.62031007, 6.5066195, -2.3670175, -5.320996, 2.9017804
1566316315577, 10.320465, 4.7301636, -9.148975, 0.6586304, 6.64384, -2.4351945, -5.3305836, 3.129747
1566316315578, 11.219523, 5.1636624, -9.915381, 0.9484278, 6.76641, -2.5076325, -5.3178, 3.3491914
1566316315587, 12.260214, 5.726492, -10.789563, 1.0514137, 6.8312793, -2.5598304, -5.2389708, 3.5590487
1566316315588, 12.93204, 6.0450296, -11.366763, 1.22146, 6.9090953, -2.6162896, -5.1697283, 3.7635794
1566316315597, 13.605291, 6.5407987, -11.848162, 1.3939015, 6.967297, -2.6557043, -5.0663977, 3.9776974
1566316315598, 14.490156, 7.117998, -12.533137, 1.4897022, 7.013571, -2.7196202, -4.9034123, 4.213121
1566316315607, 15.314776, 7.563472, -13.246854, 1.3627661, 7.022656, -2.7760792, -4.7382965, 4.3771715
1566316315609, 15.938174, 7.822134, -13.824054, 1.3172607, 7.0593123, -2.860235, -4.5540056, 4.57318
1566316315617, 16.236624, 7.92991, -14.10906, 1.2957057, 7.1152024, -2.9433258, -4.394216, 4.7596016
1566316315619, 16.535864, 7.999366, -14.413228, 1.3052857, 7.1821766, -3.0274816, -4.2546663, 4.931109
1566316315632, 16.976122, 8.162227, -14.815592, 1.4370118, 7.2890315, -3.1052458, -4.1630535, 5.1143346
1566316315633, 17.57639, 8.547825, -15.28262, 1.5184424, 7.4014373, -3.186206, -4.094877, 5.278385
1566316315638, 18.468084, 8.981323, -16.034657, 1.8154249, 7.5159264, -3.2682314, -4.032026, 5.4360447
1566316315639, 19.271631, 9.577683, -16.602276, 2.0070264, 7.608309, -3.3353431, -3.9755669, 5.563876
1566316315648, 20.012203, 10.133328, -17.09565, 2.3543043, 7.6805654, -3.3641052, -3.9180427, 5.6853166
1566316315660, 20.90008, 10.820699, -17.670454, 2.7351124, 7.7469645, -3.391802, -3.879693, 5.784386
1566316315661, 21.896412, 11.596685, -18.30274, 3.159031, 7.7745233, -3.396063, -3.8072553, 5.866411
1566316315662, 22.760641, 12.111614, -18.935026, 3.5805542, 7.779473, -3.3726273, -3.7113814, 5.9473715
1566316315669, 23.59395, 12.609778, -19.507435, 4.138594, 7.7684927, -3.327886, -3.5910065, 6.0315275
1566316315670, 24.261036, 12.89239, -20.01039, 4.687053, 7.735324, -3.2479913, -3.4131074, 6.134858
1566316315679, 24.762749, 13.009747, -20.357666, 5.4319043, 7.6790013, -3.129747, -3.2170987, 6.230732
1566316315680, 25.224232, 13.100758, -20.66423, 6.133645, 7.612991, -2.9720879, -2.984871, 6.3415194
1566316315688, 25.7139, 13.124707, -20.896545, 7.230564, 7.5438986, -2.770753, -2.7867317, 6.4395237
1566316315689, 26.121622, 13.091177, -20.918102, 8.566985, 7.4661236, -2.489523, -2.6088326, 6.537528
1566316315698, 26.400965, 13.062437, -20.74566, 9.798025, 7.387543, -2.15503, -2.4724789, 6.6195536
1566316315699, 26.705952, 13.1366825, -20.448677, 11.067386, 7.312745, -1.7459685, -2.3819313, 6.689861
1566316315710, 26.855368, 13.196558, -20.036734, 12.066109, 7.267221, -1.3028184, -2.308428, 6.7665596
1566316315711, 27.022623, 13.397739, -19.778072, 12.631333, 7.2159843, -0.84368944, -2.2700787, 6.7974524
1566316315719, 27.310442, 13.809683, -19.682272, 12.952266, 7.1632833, -0.34621096, -2.2104237, 6.804909
1566316315720, 27.501902, 14.391673, -19.478695, 13.0313015, 7.124123, 0.14168017, -2.1582258, 6.787865
1566316315729, 27.47496, 14.767691, -19.291883, 12.83012, 7.077322, 0.608266, -2.1060278, 6.7292757
1566316315731, 27.561441, 15.31136, -19.121838, 12.631333, 7.048075, 1.0982877, -2.0730047, 6.646185
1566316315738, 27.476088, 15.814315, -18.83683, 12.248131, 7.030747, 1.5393071, -2.0857878, 6.5353975
1566316315740, 27.53492, 16.329245, -18.697918, 11.9128275, 7.033581, 1.969674, -2.1230721, 6.409696
1566316315749, 27.397457, 16.654966, -18.491947, 11.457774, 7.0559707, 2.3979104, -2.1699438, 6.2712116
1566316315751, 27.148851, 16.882494, -18.240469, 10.923684, 7.09685, 2.819755, -2.23599, 6.1167483
1566316315761, 26.819557, 16.796272, -18.072819, 10.514136, 7.1854067, 3.226686, -2.3105586, 5.989982
1566316315762, 26.293907, 16.46097, -17.936302, 9.934542, 7.312913, 3.641074, -2.3861923, 5.875999
1566316315769, 25.599224, 15.8167095, -17.936302, 9.134604, 7.4562783, 4.012851, -2.4714136, 5.7779946
1566316315771, 24.741222, 14.9161825, -17.998573, 8.104747, 7.6343718, 4.35054, -2.5587652, 5.727927
1566316315780, 23.79059, 14.125826, -17.83571, 6.952742, 7.805139, 4.6317697, -2.654639, 5.6938386
1566316315781, 22.83242, 13.357024, -17.65848, 5.575606, 7.940433, 4.853345, -2.751578, 5.6501627
1566316315789, 21.849037, 12.78222, -17.213007, 4.2080493, 8.045079, 5.006743, -2.863431, 5.6086173
1566316315790, 21.08816, 12.346326, -16.868124, 2.7830129, 8.083847, 5.0855727, -2.948652, 5.5489626
1566316315800, 20.634493, 12.255316, -16.55677, 1.2094849, 8.06907, 5.1047473, -2.992328, 5.486112
1566316315801, 20.297956, 12.2361555, -16.195124, -0.038320314, 7.979703, 5.0610714, -2.9838057, 5.3998256
1566316315809, 20.17028, 12.4541025, -15.80713, -1.3675562, 7.8080482, 4.9566755, -2.9273467, 5.2751894
1566316315814, 19.91879, 12.681629, -15.1964, -2.2369483, 7.5785127, 4.8288436, -2.815494, 5.1175303
1566316315819, 19.536028, 12.988192, -14.319822, -2.811753, 7.3194885, 4.687164, -2.6823359, 4.9406967
1566316315820, 19.273083, 13.294754, -13.606107, -3.0943654, 7.026049, 4.538027, -2.530003, 4.729774
1566316315829, 18.957088, 13.4743805, -12.937896, -3.2284865, 6.70055, 4.362258, -2.3627565, 4.503938
1566316315830, 18.689585, 13.730647, -12.22418, -3.3673975, 6.3490286, 4.186489, -2.167813, 4.252536
1566316315840, 18.33812, 13.807288, -11.53681, -3.542234, 5.978006, 3.9979374, -1.9611518, 3.9883502
1566316315841, 17.82784, 13.613292, -10.92608, -3.6236646, 5.5976706, 3.8008635, -1.71188, 3.7358825
1566316315850, 17.309849, 13.117522, -10.497371, -4.167334, 5.193681, 3.552657, -1.4413028, 3.5036547
1566316315850, 16.888756, 12.724739, -10.059082, -4.703819, 4.762499, 3.2692966, -1.1483551, 3.2671661
1566316315860, 16.246077, 12.216995, -9.419612, -5.094207, 4.3415985, 2.9763489, -0.8341021, 3.0487869
1566316315861, 15.556314, 11.781101, -8.691526, -5.2594633, 3.9325342, 2.6770096, -0.5187838, 2.8336034
1566316315869, 14.870216, 11.364368, -8.111932, -5.1157618, 3.552054, 2.3734093, -0.22264028, 2.6333337
1566316315870, 14.336431, 10.95961, -7.7694435, -5.005591, 3.1952522, 2.0921793, 0.07456851, 2.4138892
1566316315880, 13.884568, 10.820699, -7.3646855, -4.631968, 2.8631608, 1.8279938, 0.35260254, 2.17527
1566316315881, 13.639896, 10.827884, -7.1467385, -4.2104445, 2.5720735, 1.5787219, 0.6103965, 1.9366508
1566316315891, 13.413319, 10.715318, -7.096443, -3.8392165, 2.3205442, 1.3571469, 0.829841, 1.6895094
1566316315892, 12.915633, 10.32014, -6.983877, -3.396138, 2.1217475, 1.128115, 1.0365024, 1.4679344
1566316315901, 12.420525, 9.83874, -6.871311, -3.2021413, 1.9743854, 0.90973586, 1.2186625, 1.2591426
1566316315901, 11.987478, 9.393267, -6.840176, -2.9458742, 1.8760886, 0.7190535, 1.3773869, 1.051416
1566316315911, 11.581975, 9.08431, -6.686895, -2.6273365, 1.8057197, 0.52837116, 1.4956313, 0.8628642
1566316315912, 11.171357, 8.732242, -6.6509695, -2.076482, 1.7481729, 0.38136467, 1.5680692, 0.67218184
1566316315921, 10.863349, 8.468789, -6.600674, -1.6501685, 1.6790966, 0.23329292, 1.5883093, 0.49215218
1566316315923, 10.626542, 8.207732, -6.638994, -1.2166699, 1.5944574, 0.10652645, 1.5606124, 0.3089267
1566316315931, 10.415328, 8.066426, -6.543194, -0.77359134, 1.5263493, 0.007456851, 1.5201324, 0.13741912
1566316315933, 10.260192, 7.951465, -6.468948, -0.44547364, 1.4436396, -0.07563378, 1.4413028, -0.03195793
1566316315941, 10.320394, 7.8748245, -6.67013, -0.083825685, 1.3836342, -0.13528858, 1.361408, -0.2066613
1566316315942, 10.323229, 7.673643, -6.9024467, 0.20118165, 1.3160591, -0.20240025, 1.2516857, -0.35260254
1566316315951, 10.362026, 7.5203614, -7.1251836, 0.21794678, 1.2644582, -0.2514024, 1.1345067, -0.49854377
1566316315953, 10.795276, 7.711963, -7.5467067, 0.33290774, 1.2542796, -0.3110572, 1.0386329, -0.6306366
1566316315962, 10.479673, 7.0916533, -7.692803, 0.5939649, 1.2423856, -0.3472762, 0.9353022, -0.74035877
1566316315963, 9.8834505, 6.222261, -7.6401124, 0.7711963, 1.2416301, -0.39521313, 0.85540736, -0.8085357
1566316315971, 9.528962, 5.726492, -7.585027, 0.68976563, 1.237356, -0.44421527, 0.75420725, -0.8745821
1566316315973, 9.44681, 5.4534597, -7.668853, 0.8310718, 1.2373664, -0.50173956, 0.63915867, -0.9331717
1566316315982, 9.425284, 5.345684, -7.692803, 1.0394385, 1.245653, -0.5411543, 0.51026165, -0.99921805
1566316315983, 9.470432, 5.230723, -7.774234, 1.3747413, 1.2898158, -0.5901565, 0.38242993, -1.0812434
1566316315992, 9.543594, 5.2810183, -7.7694435, 1.6813037, 1.3229281, -0.6135923, 0.23435818, -1.1483551
1566316315993, 9.607353, 4.960086, -7.9227247, 2.2201831, 1.3554355, -0.60293967, 0.10865697, -1.2090752
1566316316002, 9.642165, 4.679868, -7.9610453, 2.7734327, 1.3892266, -0.58909124, 0.0127831735, -1.2580773
1566316316003, 9.608735, 4.4834766, -8.047266, 2.7327175, 1.4407867, -0.5933523, -0.037284255, -1.3124058
1566316316013, 9.823047, 4.9002104, -8.171807, 2.3878345, 1.529056, -0.608266, -0.07563378, -1.4008228
1566316316014, 10.01779, 4.89542, -8.51669, 1.9639161, 1.604023, -0.6508766, -0.10013486, -1.4626081
1566316316022, 10.348031, 4.679868, -9.081915, 1.6429834, 1.7028558, -0.74675035, -0.10865697, -1.526524
1566316316024, 10.478678, 4.267925, -9.489068, 1.2430152, 1.7963893, -0.8383631, -0.09054748, -1.5861788
1566316316032, 10.579012, 4.0811133, -9.711804, 0.9699829, 1.8828647, -0.9619338, -0.070307456, -1.6170714
1566316316034, 10.656956, 3.7146754, -9.951306, 0.86220706, 1.9768146, -1.0908308, -0.04580637, -1.6479641
1566316316042, 10.859944, 3.6188745, -10.207574, 0.8047266, 2.0667245, -1.2197278, -0.026631612, -1.6682042
1566316316044, 11.111525, 3.4967287, -10.518927, 0.76880133, 2.1472914, -1.3401027, -0.0010652645, -1.6777915
1566316316053, 11.238849, 3.307522, -10.696157, 0.98195803, 2.2311702, -1.4583471, 0.022370555, -1.6884441
1566316316054, 11.376715, 3.1446607, -10.887759, 0.9987232, 2.3179374, -1.5893745, 0.05539375, -1.6863136
1566316316063, 11.408156, 3.0776002, -10.8997345, 1.3675562, 2.3777719, -1.6607473, 0.09374327, -1.6990968
1566316316065, 11.421271, 3.027305, -10.842254, 1.9303858, 2.415792, -1.7022926, 0.12250541, -1.7097495
1566316316074, 11.594398, 3.1039455, -10.880574, 2.5315359, 2.4302642, -1.7129452, 0.15233281, -1.7172064
1566316316076, 11.834142, 3.2428565, -11.000325, 2.919529, 2.4502642, -1.71188, 0.15765914, -1.7459685
1566316316085, 12.059484, 3.2117214, -11.218272, 3.04407, 2.4476163, -1.6745957, 0.15978967, -1.7779263
1566316316090, 12.275394, 3.4536183, -11.275752, 3.408113, 2.43052, -1.6170714, 0.1438107, -1.808819
1566316316102, 12.285145, 3.276387, -11.354788, 3.3554225, 2.4149663, -1.5712651, 0.13315806, -1.8290591
1566316316104, 12.1652155, 3.1231055, -11.297308, 3.2572267, 2.3723145, -1.514806, 0.10546118, -1.8226675
1566316316105, 11.740585, 2.8524685, -11.03625, 2.811753, 2.3405297, -1.4849787, 0.070307456, -1.8077538
1566316316107, 11.24715, 2.6129665, -10.720108, 2.179468, 2.3345244, -1.4668691, 0.05752428, -1.8152106
1566316316113, 10.749401, 2.5051906, -10.31535, 1.6932789, 2.3423085, -1.4711303, 0.0628506, -1.8216022
1566316316115, 10.425042, 2.5459058, -10.039923, 1.1831397, 2.37437, -1.4977618, 0.07669904, -1.8407769
1566316316124, 10.044252, 2.4525, -9.683064, 1.0538087, 2.4196322, -1.5116103, 0.10226539, -1.8865833
1566316316125, 9.669059, 2.4764502, -9.295072, 0.97956306, 2.4769094, -1.5286545, 0.15126756, -1.9430424
1566316316133, 9.348049, 2.5842261, -8.921448, 1.0562036, 2.5375419, -1.5126755, 0.2034655, -2.0271983
1566316316135, 9.289282, 2.8476784, -8.758587, 1.21188, 2.5956273, -1.4721955, 0.25885928, -2.122007
1566316316143, 9.340973, 3.0823903, -8.684341, 1.5280225, 2.6596837, -1.4253238, 0.30040458, -2.2253375
1566316316145, 9.443858, 3.1350808, -8.751402, 1.6645386, 2.7286782, -1.3582122, 0.3653857, -2.3382554
1566316316153, 9.453947, 3.1063404, -8.796907, 1.5304176, 2.7926462, -1.2964269, 0.43356264, -2.4351945
1566316316155, 9.490586, 2.9602442, -8.914263, 1.3579761, 2.8618598, -1.2325109, 0.51984906, -2.530003
1566316316164, 9.629754, 2.9506643, -9.096285, 1.1328443, 2.9475412, -1.1824435, 0.6146576, -2.6290727
1566316316165, 9.754415, 2.8883936, -9.278306, 0.847837, 3.0413942, -1.1611383, 0.69029135, -2.7249465
1566316316174, 10.018075, 2.7973828, -9.608819, 0.45505372, 3.1211836, -1.1462245, 0.7488809, -2.8048413
1566316316175, 10.312467, 2.7399025, -9.939331, 0.22273682, 3.218384, -1.1632688, 0.8000136, -2.892193
1566316316184, 10.524183, 2.9171338, -10.111773, -0.028740235, 3.339112, -1.1781825, 0.86606, -3.0019152
1566316316185, 10.770459, 3.2644117, -10.262659, -0.15567628, 3.4194016, -1.1856394, 0.90654004, -3.0764837
1566316316195, 10.912892, 2.9027638, -10.518927, 0.13172609, 3.481292, -1.1952267, 0.9321064, -3.134008
1566316316197, 11.0892, 2.7782228, -10.729688, 0.3544629, 3.5307956, -1.2037488, 0.9555422, -3.178749
1566316316204, 11.27921, 2.7638526, -10.933265, 0.21315674, 3.5650055, -1.2282499, 0.94808537, -3.2096417
1566316316205, 11.6465, 2.931504, -11.266172, 0.34727785, 3.6137183, -1.2463595, 0.9416938, -3.2586439
1566316316215, 12.0050125, 3.5134938, -11.464959, 0.5748047, 3.6646972, -1.2452941, 0.9086706, -3.3246903
1566316316215, 12.478395, 3.8535867, -11.843372, 0.7711963, 3.685037, -1.2378373, 0.8245147, -3.371562
1566316316224, 12.786044, 3.8008962, -12.173884, 0.91250247, 3.6709077, -1.2154667, 0.77125144, -3.3768883
1566316316225, 13.18427, 3.4608033, -12.691209, 0.88376224, 3.6154196, -1.2080098, 0.73290193, -3.327886
1566316316234, 13.500008, 3.0752053, -13.127103, 0.68737066, 3.553232, -1.1920309, 0.6988135, -3.2735577
1566316316235, 13.689485, 2.6057813, -13.42648, 0.5843848, 3.4495673, -1.1941614, 0.7052051, -3.158509
1566316316244, 13.763559, 2.095642, -13.594131, 0.49337405, 3.3162777, -1.1909657, 0.7052051, -3.0136333
1566316316245, 13.750852, 1.6693287, -13.637241, 0.57001466, 3.1578596, -1.1664646, 0.7222493, -2.8442562
1566316316255, 13.7067995, 1.2717555, -13.634847, 0.59156984, 2.9640608, -1.1345067, 0.7126619, -2.6439865
1566316316256, 13.597478, 0.74724615, -13.546231, 0.91250247, 2.6987302, -1.0599382, 0.6114618, -2.4053671
1566316316265, 13.524608, 0.011975098, -13.40253, 1.8130299, 2.449149, -0.96619487, 0.50387007, -2.1933794
1566316316266, 12.749819, 0.05508545, -12.614569, 1.8513502, 2.237969, -0.9129316, 0.42077947, -1.9995013
1566316316275, 11.905251, 0.2083667, -11.809842, 1.4897022, 2.046293, -0.8671253, 0.3898868, -1.8120148
1566316316276, 11.418161, 0.55803955, -11.345208, 1.1615845, 1.896995, -0.8426242, 0.38029942, -1.6564863
1566316316288, 11.27033, 0.99393314, -11.141631, 1.3771362, 1.7269984, -0.76912093, 0.34940675, -1.506284
1566316316289, 11.31352, 1.585503, -11.048225, 1.8489552, 1.5712925, -0.6924219, 0.294013, -1.3795174
1566316316298, 11.35065, 2.0453467, -10.942844, 2.215393, 1.4520161, -0.59228706, 0.21518342, -1.3081448
1566316316299, 11.117698, 2.6225464, -10.535691, 2.3926246, 1.3481662, -0.49428272, 0.13102753, -1.2474247
1566316316308, 10.850225, 2.8883936, -10.1189575, 2.6441016, 1.2620039, -0.38136467, 0.027696876, -1.2026836
1566316316309, 10.438687, 3.0416749, -9.616004, 2.692002, 1.1963185, -0.26631612, -0.04580637, -1.1653993
1566316316319, 10.000533, 3.1566358, -9.077125, 2.7662477, 1.1417955, -0.14274544, -0.10333065, -1.128115
1566316316321, 9.7491455, 3.408113, -8.765772, 2.567461, 1.1135153, -0.025566347, -0.14594123, -1.103614
1566316316325, 9.626481, 3.6140847, -8.576566, 2.459685, 1.1171532, 0.07669904, -0.18322548, -1.099353
1566316316327, 9.584284, 3.784131, -8.490345, 2.335144, 1.131185, 0.17576863, -0.20026971, -1.099353
1566316316335, 9.445589, 4.0116577, -8.279583, 2.1387525, 1.1618348, 0.2759035, -0.19813919, -1.1110709
1566316316337, 9.133325, 3.9326222, -8.087981, 1.5926881, 1.1777326, 0.3472762, -0.13315806, -1.1174624
1566316316345, 8.926514, 3.9565725, -7.9394903, 0.9963282, 1.1693658, 0.37390783, 0.014913702, -1.107875
1566316316346, 8.716556, 3.8511915, -7.814949, 0.2706372, 1.1572416, 0.386691, 0.1587244, -1.0791129
1566316316357, 8.787432, 4.0499783, -7.788604, 0.39278322, 1.172907, 0.4133226, 0.22264028, -1.0748519
1566316316358, 8.912571, 4.1098537, -7.8772197, 0.70174074, 1.1675851, 0.46871635, 0.22690132, -1.0450244
1566316316371, 9.11779, 4.119434, -8.109536, 0.6322852, 1.1685135, 0.515588, 0.21731395, -1.0258497
1566316316371, 9.292444, 4.1314087, -8.322693, 0.117355965, 1.1509408, 0.5230448, 0.2247708, -1.0002834
1566316316380, 9.4095335, 4.0930886, -8.454419, -0.5556446, 1.1244763, 0.50173956, 0.24607609, -0.9757822
1566316316381, 9.472214, 4.0116577, -8.51669, -1.0466236, 1.069978, 0.44528055, 0.26418558, -0.93636745
1566316316392, 9.642211, 4.006868, -8.657996, -1.3986914, 1.0156379, 0.3930826, 0.2545982, -0.9012137
1566316316392, 9.647949, 3.7458107, -8.763377, -1.5016773, 0.94434357, 0.34088463, 0.23009712, -0.850081
1566316316400, 9.701277, 3.6332448, -8.844808, -1.6381935, 0.8490371, 0.26418558, 0.19068234, -0.7840346
1566316316401, 9.958542, 3.6859353, -9.077125, -1.7866846, 0.77248496, 0.18961707, 0.1587244, -0.7318367
1566316316411, 9.9259, 3.5997145, -9.045989, -1.9327809, 0.6970908, 0.11717909, 0.14274544, -0.67218184
1566316316412, 9.971081, 3.4464333, -9.168135, -1.8681153, 0.6085197, 0.040480047, 0.101200126, -0.59867865
1566316316421, 9.760952, 3.3482375, -9.0004835, -1.7483643, 0.5514933, -0.039414786, 0.0628506, -0.54648066
1566316316422, 9.639789, 3.319497, -8.873548, -1.7794995, 0.487201, -0.128897, 0.007456851, -0.46978164
1566316316430, 9.772404, 3.6021094, -8.921448, -1.7124391, 0.47708747, -0.21518342, -0.039414786, -0.42397526
1566316316431, 9.901113, 3.8104763, -9.024434, -1.4394068, 0.48748392, -0.28442562, -0.07456851, -0.3888215
1566316316439, 10.151412, 4.1218286, -9.189691, -1.2693604, 0.52057105, -0.3472762, -0.094808534, -0.37603834
1566316316440, 10.304582, 4.366121, -9.283096, -0.97237796, 0.5466011, -0.3930826, -0.13848437, -0.3536678
1566316316449, 10.449676, 4.485872, -9.414823, -0.6586304, 0.5777545, -0.44315, -0.15978967, -0.33449304
1566316316450, 10.400542, 4.5385623, -9.347761, -0.4382886, 0.59402514, -0.48043427, -0.17470337, -0.30253512
1566316316463, 10.357922, 4.430786, -9.362132, -0.07185059, 0.6018518, -0.50173956, -0.19600865, -0.26844665
1566316316464, 10.306459, 4.387676, -9.321417, 0.28740236, 0.5850242, -0.5028048, -0.20879184, -0.21411815
1566316316472, 10.229259, 4.2272096, -9.295072, 0.60833496, 0.5594708, -0.48682585, -0.221575, -0.16405073
1566316316472, 10.082006, 4.133804, -9.15137, 0.90052736, 0.5237906, -0.45380265, -0.23222765, -0.12037488
1566316316482, 10.0953245, 4.0739284, -9.11784, 1.477727, 0.48912463, -0.40906155, -0.26525086, -0.039414786
1566316316483, 10.09249, 4.033213, -9.086704, 1.7387843, 0.454255, -0.3387541, -0.30146983, 0.026631612
1566316316491, 9.949607, 3.8008962, -9.0076685, 1.8465601, 0.45249793, -0.27377295, -0.34514567, 0.10333065
1566316316492, 9.842304, 3.755391, -8.873548, 2.0070264, 0.47852316, -0.20559604, -0.39521313, 0.17470337
1566316316501, 9.688995, 3.7410207, -8.753797, 1.8034497, 0.5171549, -0.14168017, -0.4346279, 0.24181503
1566316316502, 9.668676, 3.8727467, -8.653206, 1.8992506, 0.5590314, -0.068176925, -0.46232477, 0.30679616
1566316316510, 9.567848, 3.9948928, -8.485555, 1.8920655, 0.5962874, -0.013848438, -0.47830373, 0.35579833
1566316316511, 9.586888, 4.3421707, -8.344249, 1.8513502, 0.6264797, 0.041545313, -0.4825648, 0.39734364
1566316316523, 9.557668, 4.605623, -8.214917, 1.6286134, 0.63609487, 0.098004326, -0.4825648, 0.40266997
1566316316524, 9.597111, 4.8020144, -8.133487, 1.7004639, 0.6464681, 0.14061491, -0.48043427, 0.40906155
1566316316531, 9.577914, 5.017566, -8.025711, 1.465752, 0.64644086, 0.18429075, -0.4644553, 0.4101268
1566316316532, 9.494474, 5.108577, -7.8580594, 1.5160475, 0.64720404, 0.22583607, -0.45167214, 0.4048005
1566316316543, 9.5532055, 5.2666483, -7.8508744, 1.3747413, 0.63132983, 0.25885928, -0.42077947, 0.3930826
1566316316544, 9.587131, 5.4103494, -7.812554, 1.2669654, 0.6150599, 0.2876214, -0.4016047, 0.36645097
1566316316552, 9.61975, 5.489385, -7.831714, 1.0346485, 0.6111091, 0.32597092, -0.3749731, 0.35579833
1566316316553, 9.553319, 5.4031644, -7.822134, 0.9412427, 0.6169427, 0.36218992, -0.34940675, 0.3568636
1566316316562, 9.577231, 5.3384986, -7.917935, 0.728086, 0.6251188, 0.3717773, -0.3472762, 0.36325517
1566316316565, 9.514233, 5.2738333, -7.91075, 0.35685793, 0.6182509, 0.36432046, -0.34621096, 0.36005938
1566316316570, 9.4656925, 5.0822315, -7.9849954, -0.100590825, 0.6066258, 0.33662358, -0.32170987, 0.3888215
1566316316578, 9.553178, 5.158872, -8.020921, -0.5604346, 0.5917618, 0.29188246, -0.32597092, 0.39840892
1566316316579, 9.510248, 5.1397123, -7.9394903, -0.9963282, 0.56087667, 0.22370553, -0.30466563, 0.41438788
1566316316580, 9.700672, 5.3289185, -7.9945755, -1.3388159, 0.53296983, 0.14061491, -0.28442562, 0.4282363
1566316316596, 9.859443, 5.4031644, -8.080796, -1.6477735, 0.49946022, 0.05006743, -0.22903186, 0.44101948
1566316316597, 10.163959, 5.5875807, -8.284373, -1.8585353, 0.47573572, -0.046871636, -0.16937704, 0.44208476
1566316316600, 10.263723, 5.640271, -8.353828, -1.9351759, 0.48539367, -0.1438107, -0.094808534, 0.45380265
1566316316601, 10.3886595, 5.824688, -8.377779, -1.951941, 0.5189205, -0.24820662, -0.027696876, 0.45486793
1566316316611, 10.434742, 5.910908, -8.408914, -1.7986598, 0.563844, -0.33981937, 0.036218993, 0.44847634
1566316316612, 10.362027, 6.0114994, -8.291558, -1.575923, 0.61949134, -0.42717105, 0.098004326, 0.43782368
1566316316620, 10.401664, 6.12646, -8.305928, -1.2933106, 0.65842307, -0.4878911, 0.15126756, 0.41545314
1566316316621, 10.424135, 6.222261, -8.293953, -1.0753639, 0.7108124, -0.5603291, 0.21411815, 0.38136467
1566316316632, 10.390992, 6.327642, -8.2197075, -0.60833496, 0.74395895, -0.5954828, 0.26312032, 0.36005938
1566316316632, 10.48939, 6.4066777, -8.296348, -0.3903882, 0.7733218, -0.6402239, 0.28975195, 0.32277513
1566316316641, 10.465383, 6.3851223, -8.291558, -0.06706055, 0.7975829, -0.67005134, 0.31638354, 0.29507825
1566316316642, 10.504062, 6.447393, -8.289163, 0.23710695, 0.7989995, -0.67537767, 0.330232, 0.27057716
1566316316652, 10.45605, 6.2653713, -8.351434, 0.5724097, 0.7936442, -0.6775082, 0.32810146, 0.2514024
1566316316653, 10.550128, 6.231841, -8.466394, 0.8885523, 0.7654902, -0.6466155, 0.32597092, 0.24820662
1566316316662, 10.619471, 6.0186844, -8.684341, 1.0633887, 0.7360322, -0.6221144, 0.3110572, 0.24074976
1566316316663, 10.571412, 5.767207, -8.792117, 1.092129, 0.7183714, -0.59761333, 0.30040458, 0.26205507
1566316316672, 10.624658, 5.5947657, -8.981323, 0.9580079, 0.72402495, -0.58269966, 0.31638354, 0.2908172
1566316316673, 10.558525, 5.4510646, -8.995694, 0.9196875, 0.7211549, -0.5581986, 0.3153183, 0.330232
1566316316683, 10.516408, 5.3408937, -9.0076685, 0.9651929, 0.72191375, -0.5411543, 0.30146983, 0.37071204
1566316316684, 10.619835, 5.247488, -9.17053, 1.0705738, 0.7118725, -0.5070659, 0.28229508, 0.41225734
1566316316691, 10.782593, 5.108577, -9.433982, 1.0801538, 0.7009675, -0.4676511, 0.23861924, 0.4644553
1566316316692, 11.006576, 5.223538, -9.620794, 1.1400293, 0.68700224, -0.41971418, 0.18535602, 0.5113269
1566316316703, 11.276508, 5.4103494, -9.845925, 0.97237796, 0.70227516, -0.4048005, 0.14594123, 0.5550028
1566316316705, 11.591572, 5.6187162, -10.097403, 0.9148975, 0.6967554, -0.35473305, 0.10652645, 0.5901565
1566316316715, 11.798708, 5.8510327, -10.200389, 0.9627979, 0.70550025, -0.31638354, 0.0628506, 0.62744075
1566316316716, 11.910715, 6.0043144, -10.236314, 1.0154883, 0.7195142, -0.27377295, 0.029827405, 0.664725
1566316316722, 12.036829, 6.0426345, -10.3440895, 1.1711646, 0.72546625, -0.21518342, -0.023435818, 0.6924219
1566316316723, 11.961592, 6.1312504, -10.214759, 1.0705738, 0.74717957, -0.1736381, -0.070307456, 0.7233146
1566316316737, 12.1957245, 6.3851223, -10.322535, 1.1879297, 0.7667966, -0.13209279, -0.12676647, 0.74461985
1566316316738, 12.188429, 6.4018874, -10.289004, 1.3076807, 0.7884598, -0.05752428, -0.15339808, 0.77125144
1566316316742, 12.040647, 6.480923, -10.061478, 1.3196558, 0.80567306, -0.010652645, -0.18961707, 0.78296936
1566316316745, 11.806802, 6.440208, -9.807606, 1.3172607, 0.82201636, 0.033023197, -0.2034655, 0.7957525
1566316316753, 11.620753, 6.478528, -9.534574, 1.4705421, 0.84624314, 0.084155895, -0.21198763, 0.8149273
1566316316754, 11.228108, 6.368357, -9.15137, 1.3292359, 0.859444, 0.13848437, -0.20772657, 0.8223842
1566316316761, 11.096346, 6.351592, -8.995694, 1.3651612, 0.8691031, 0.19387813, -0.19920446, 0.82344943
1566316316762, 10.852123, 6.2677665, -8.760982, 1.3148658, 0.88509953, 0.24927188, -0.19920446, 0.82557994
1566316316771, 10.727935, 6.2725563, -8.595725, 1.3627661, 0.8999518, 0.28549087, -0.1949434, 0.8309063
1566316316772, 10.376922, 6.11209, -8.293953, 1.2382251, 0.9202658, 0.3323625, -0.18322548, 0.8383631
1566316316781, 10.142933, 6.0498195, -8.056846, 1.1687696, 0.92745876, 0.38562572, -0.17789917, 0.8245147
1566316316787, 9.835837, 5.8342676, -7.8365045, 1.1376343, 0.9395101, 0.43249738, -0.17257284, 0.8159926
1566316316797, 9.692659, 5.9133034, -7.599397, 1.1088941, 0.9552762, 0.4889564, -0.16831179, 0.8032094
1566316316797, 9.482418, 5.807923, -7.3958206, 1.219065, 0.9729673, 0.5550028, -0.165116, 0.7819041
1566316316804, 9.368506, 5.7911572, -7.2401443, 1.346001, 1.0001812, 0.6348976, -0.17789917, 0.7520767
1566316316805, 9.380352, 5.807923, -7.2640944, 1.22146, 1.0219846, 0.71159667, -0.20559604, 0.7041398
1566316316820, 9.354902, 5.9396486, -7.103628, 1.331631, 1.0607002, 0.7914915, -0.23222765, 0.6668556
1566316316822, 9.456187, 6.0498195, -7.173084, 1.1687696, 1.0913228, 0.8724516, -0.25992453, 0.6018744
1566316316823, 9.535367, 6.198311, -7.175479, 1.0083033, 1.1323881, 0.95447695, -0.294013, 0.5336975
1566316316824, 9.677065, 6.217471, -7.36708, 0.84544194, 1.174525, 1.026915, -0.32597092, 0.4676511
1566316316839, 9.637907, 6.11209, -7.434141, 0.51492923, 1.2130345, 1.0844392, -0.35792887, 0.40906155
1566316316840, 9.700279, 6.08814, -7.5467067, 0.2778223, 1.2630233, 1.1483551, -0.3920173, 0.350472
1566316316844, 9.739739, 5.9204884, -7.7335186, -0.05508545, 1.3142052, 1.2058793, -0.4282363, 0.29933932
1566316316846, 9.7989025, 5.599556, -8.032896, -0.36883304, 1.3706676, 1.2463595, -0.5049353, 0.26525086
1566316316858, 9.832922, 5.3073635, -8.236472, -0.82388675, 1.4035544, 1.2548815, -0.5816344, 0.23861924
1566316316859, 9.868645, 4.993616, -8.404124, -1.3507911, 1.4265709, 1.2431636, -0.660464, 0.23116238
1566316316863, 10.022712, 4.8259645, -8.571775, -1.9208057, 1.444534, 1.2144015, -0.74461985, 0.2396845
1566316316864, 10.371824, 5.0774417, -8.741821, -2.318379, 1.4463788, 1.1622036, -0.82877576, 0.23329292
1566316316875, 10.749901, 5.1684523, -9.0004835, -2.799778, 1.4259069, 1.0887003, -0.89162636, 0.23009712
1566316316876, 11.037199, 5.1732426, -9.14179, -3.3889527, 1.3682455, 0.9896307, -0.9171927, 0.22690132
1566316316888, 11.351365, 5.213958, -9.316627, -3.8559816, 1.2845896, 0.86179894, -0.922519, 0.23755397
1566316316890, 11.641877, 5.221143, -9.462723, -4.3278003, 1.184793, 0.716923, -0.90973586, 0.24927188
1566316316893, 11.937959, 5.5588408, -9.501043, -4.6199927, 1.0777829, 0.5550028, -0.88843054, 0.25353295
1566316316896, 11.964134, 5.709727, -9.407638, -4.6942387, 0.96624005, 0.3717773, -0.85753787, 0.24501082
1566316316909, 12.045064, 6.0306597, -9.378897, -4.5553274, 0.868527, 0.20240025, -0.813862, 0.22583607
1566316316910, 12.124017, 6.255791, -9.359736, -4.5002418, 0.7921572, 0.035153728, -0.7669904, 0.1949434
1566316316912, 12.189717, 6.6461797, -9.299861, -4.2343946, 0.74566305, -0.13954964, -0.716923, 0.15020229
1566316316914, 11.992628, 6.686895, -9.168135, -3.8799317, 0.7394017, -0.29188246, -0.6711166, 0.10546118
1566316316929, 11.74408, 6.6437845, -9.08431, -3.3554225, 0.7595933, -0.41758367, -0.6317018, 0.05965481
1566316316931, 11.422367, 6.569539, -8.909473, -2.816543, 0.79381144, -0.5294364, -0.59122175, 0.017044231
1566316316933, 10.963006, 6.4018874, -8.634046, -2.1579127, 0.83983046, -0.6317018, -0.55287224, -0.024501082
1566316316934, 10.559329, 6.080955, -8.480764, -1.6118482, 0.8555101, -0.6945524, -0.49641323, -0.05539375
1566316316949, 10.386429, 6.0498195, -8.377779, -1.0442286, 0.87181336, -0.7350325, -0.46019423, -0.08948222
1566316316951, 10.217051, 5.8893533, -8.329878, -0.5628296, 0.8729814, -0.75633776, -0.41545314, -0.13209279
1566316316953, 10.233241, 5.724097, -8.480764, -0.17483643, 0.86593425, -0.76592517, -0.37284255, -0.1555286
1566316316954, 10.259557, 5.5516553, -8.624466, 0.23710695, 0.8535082, -0.77125144, -0.32170987, -0.1736381
1566316316970, 10.094978, 5.4031644, -8.519085, 0.37362307, 0.83383334, -0.7637946, -0.2695119, -0.19813919
1566316316973, 10.017583, 5.101392, -8.586145, 0.7783814, 0.8012963, -0.74248934, -0.21411815, -0.21198763
1566316316974, 9.902306, 4.9624805, -8.514295, 0.96758795, 0.752772, -0.69668293, -0.16085494, -0.23542345
1566316316975, 9.587736, 4.5529323, -8.344249, 1.2525953, 0.69880533, -0.64555025, -0.13102753, -0.23329292
1566316316983, 9.429379, 4.152964, -8.310719, 1.6118482, 0.63486636, -0.5816344, -0.11930962, -0.2247708
1566316316987, 9.243498, 3.7434156, -8.229287, 1.9255958, 0.55457836, -0.50387007, -0.1107875, -0.2034655
1566316317000, 9.282005, 3.5709743, -8.265213, 2.2561085, 0.4650279, -0.41545314, -0.11930962, -0.17150758
1566316317001, 9.149772, 3.295547, -8.234077, 2.2489235, 0.37164754, -0.3110572, -0.14487597, -0.14274544
1566316317003, 9.115917, 3.3242872, -8.174202, 2.2872438, 0.3096605, -0.22370553, -0.18322548, -0.1107875
1566316317004, 9.104776, 3.2356715, -8.178992, 2.3519094, 0.27342457, -0.12357068, -0.22690132, -0.08948222
1566316317020, 9.171354, 3.3410523, -8.243657, 2.2345533, 0.28243172, -0.043675844, -0.27057716, -0.068176925
1566316317021, 9.255804, 3.4631984, -8.365804, 1.9208057, 0.3128814, 0.020240024, -0.30999196, -0.037284255
1566316317023, 9.264576, 3.412903, -8.454419, 1.6453785, 0.3478101, 0.07350325, -0.33981937, -0.00958738
1566316317024, 9.336605, 3.5110989, -8.562195, 1.2382251, 0.38332206, 0.101200126, -0.36964676, 0.007456851
1566316317040, 9.212862, 3.6260598, -8.411309, 0.98914313, 0.42162544, 0.112918034, -0.40586576, 0.017044231
1566316317042, 9.269197, 3.666775, -8.487949, 0.65384036, 0.44362733, 0.12783173, -0.42397526, 0.026631612
1566316317043, 9.293885, 3.796106, -8.471185, 0.4526587, 0.44939768, 0.111852765, -0.43356264, 0.03834952
1566316317044, 9.438626, 4.1050634, -8.49753, 0.16765137, 0.45678982, 0.07882957, -0.44847634, 0.036218993
1566316317061, 9.539602, 4.181704, -8.57417, -0.031135255, 0.4382861, 0.036218993, -0.43569317, 0.03089267
1566316317062, 9.673981, 4.3014555, -8.6627865, -0.19878663, 0.42872626, 0.0031957934, -0.4282363, 0.020240024
1566316317063, 9.651779, 4.409231, -8.581355, -0.27542725, 0.41225183, -0.05006743, -0.40906155, 0.010652645
1566316317064, 9.67554, 4.3182206, -8.655601, -0.22273682, 0.41284186, -0.099069595, -0.40053943, 0.013848438
1566316317081, 9.662698, 4.358936, -8.62207, -0.16525635, 0.38987225, -0.12357068, -0.36964676, 0.00958738
1566316317082, 9.608987, 4.2367897, -8.624466, -0.028740235, 0.3758512, -0.17044231, -0.33449304, 0.018109497
1566316317083, 9.473577, 4.133804, -8.523875, 0.06227051, 0.36757955, -0.19920446, -0.30786142, 0.025566347
1566316317085, 9.357195, 4.126619, -8.392149, 0.3161426, 0.34235454, -0.22050974, -0.25992453, 0.03195793
1566316317098, 9.306718, 4.1984696, -8.289163, 0.52690434, 0.32312125, -0.22903186, -0.22370553, 0.043675844
1566316317099, 9.258728, 4.2343946, -8.210127, 0.6227051, 0.30481642, -0.24607609, -0.17044231, 0.05752428
1566316317105, 9.315563, 4.287085, -8.2197075, 0.9148975, 0.2703611, -0.23542345, -0.12357068, 0.049002163
1566316317107, 9.401582, 4.358936, -8.267608, 1.0178833, 0.24505714, -0.22583607, -0.07882957, 0.053263225
1566316317115, 9.402684, 4.4331813, -8.214917, 1.1280543, 0.22239803, -0.21731395, -0.018109497, 0.043675844
1566316317116, 9.536447, 4.663103, -8.2197075, 1.2789404, 0.19586386, -0.19068234, 0.035153728, 0.027696876
1566316317131, 9.546317, 4.8115945, -8.116721, 1.4489869, 0.18667069, -0.165116, 0.08628642, 0.011717909
1566316317133, 9.604524, 4.7325587, -8.236472, 1.4178516, 0.19747946, -0.14168017, 0.13741912, -0.0063915867
1566316317134, 9.774381, 4.8451247, -8.372989, 1.3986914, 0.2103432, -0.11504856, 0.17576863, -0.010652645
1566316317135, 9.81215, 4.87147, -8.420889, 1.2789404, 0.22976151, -0.0958738, 0.2066613, -0.029827405
1566316317151, 9.803265, 4.9552956, -8.356223, 1.3124708, 0.2406319, -0.080960095, 0.2247708, -0.02876214
1566316317153, 9.839163, 4.90979, -8.440049, 1.21188, 0.2426606, -0.05219796, 0.23435818, -0.035153728
1566316317154, 9.8467, 4.8666797, -8.466394, 1.2621753, 0.20811953, -0.025566347, 0.20453078, -0.02876214
1566316317156, 9.822215, 4.806804, -8.495134, 1.096919, 0.16787973, -0.010652645, 0.16618125, -0.02130529
1566316317165, 9.912211, 4.7325587, -8.6627865, 0.90052736, 0.12423925, -0.004261058, 0.12250541, -0.020240024
1566316317166, 9.941145, 4.720584, -8.713081, 0.79035646, 0.07484194, 0.0063915867, 0.07456851, 0.0
1566316317175, 9.893537, 4.8044095, -8.634046, 0.5029541, 0.041381102, 0.008522116, 0.040480047, 0.0010652645
1566316317176, 10.009593, 4.9385304, -8.691526, 0.51013917, 0.021464484, 0.015978966, -0.00958738, 0.010652645
1566316317185, 10.190804, 5.0678616, -8.823253, 0.56522465, 0.066046394, 0.0127831735, -0.06391586, 0.010652645
1566316317186, 10.195437, 5.144502, -8.792117, 0.4239185, 0.13248311, 0.018109497, -0.13102753, 0.007456851
1566316317195, 10.386499, 5.3384986, -8.902288, 0.35925296, 0.16765651, 0.011717909, -0.16724652, 0.0
1566316317196, 10.554316, 5.518125, -8.993299, 0.25387207, 0.1944538, 0.0010652645, -0.19387813, -0.014913702
1566316317205, 10.607347, 5.5947657, -9.010064, 0.1820215, 0.20463616, -0.0053263223, -0.20133498, -0.036218993
1566316317206, 10.600573, 5.695357, -8.940608, -0.023950197, 0.20029804, -0.018109497, -0.19281286, -0.051132694
1566316317221, 10.686314, 5.8055277, -8.971744, 0.031135255, 0.20502122, -0.034088463, -0.18748654, -0.07563378
1566316317222, 10.607581, 5.863008, -8.840017, -0.0023950196, 0.20531158, -0.05219796, -0.1587244, -0.11930962
1566316317228, 10.635983, 5.870193, -8.868757, 0.100590825, 0.2008412, -0.07563378, -0.13209279, -0.13102753
1566316317229, 10.775794, 5.8917484, -9.022039, 0.08861572, 0.21859217, -0.096939065, -0.10546118, -0.165116
1566316317242, 10.869638, 5.877378, -9.14179, 0.1820215, 0.22915074, -0.112918034, -0.07350325, -0.18535602
1566316317242, 10.958203, 5.8055277, -9.292676, 0.15567628, 0.23658706, -0.12357068, -0.03195793, -0.19920446
1566316317248, 10.94207, 5.6666164, -9.357342, 0.24189699, 0.27624878, -0.14274544, -0.0031957934, -0.23648871
1566316317249, 10.877609, 5.49657, -9.381292, 0.31853762, 0.28146175, -0.13741912, 0.02876214, -0.24394555
1566316317256, 10.705955, 5.1876125, -9.359736, 0.31853762, 0.28115112, -0.14594123, 0.06178534, -0.23222765
1566316317257, 10.540384, 5.0031962, -9.271121, 0.33769777, 0.29291672, -0.14168017, 0.09374327, -0.23861924
1566316317270, 10.542134, 4.8115945, -9.371712, 0.39517823, 0.284264, -0.14274544, 0.1107875, -0.21944448
1566316317271, 10.421524, 4.5529323, -9.362132, 0.47900394, 0.2770937, -0.14168017, 0.13209279, -0.19813919
1566316317282, 10.4444685, 4.4331813, -9.4435625, 0.5029541, 0.2573336, -0.13315806, 0.14807177, -0.16298546
1566316317283, 10.277298, 4.26553, -9.340576, 0.4263135, 0.24921724, -0.11717909, 0.1555286, -0.1555286
1566316317287, 10.390267, 4.3421707, -9.426797, 0.488584, 0.2149011, -0.1107875, 0.15020229, -0.10652645
1566316317288, 10.421954, 4.2511597, -9.503438, 0.47900394, 0.18694101, -0.10013486, 0.13422333, -0.083090626
1566316317299, 10.440456, 4.28469, -9.515413, 0.31853762, 0.15484491, -0.09374327, 0.113983296, -0.046871636
1566316317300, 10.422537, 4.263135, -9.508228, 0.2203418, 0.13580763, -0.08948222, 0.10013486, -0.020240024
1566316317307, 10.568914, 4.493057, -9.565708, 0.10777588, 0.12211109, -0.083090626, 0.08948222, 0.0
1566316317308, 10.685072, 4.5936475, -9.64714, 0.043110352, 0.124344245, -0.09374327, 0.07989483, 0.017044231
1566316317316, 10.79822, 4.7301636, -9.707015, -0.031135255, 0.11616268, -0.08628642, 0.07137272, 0.03089267
1566316317317, 10.99182, 4.8379397, -9.869876, 0.0023950196, 0.10233749, -0.07669904, 0.054328486, 0.040480047
1566316317327, 11.117065, 4.9169755, -9.970467, -0.047900394, 0.10192081, -0.07669904, 0.039414786, 0.054328486
1566316317328, 11.195043, 4.976851, -10.027947, -0.014370117, 0.10191525, -0.06711166, 0.0, 0.07669904
1566316317337, 11.34764, 4.976851, -10.197993, 0.028740235, 0.1021488, -0.058589544, -0.03089267, 0.0777643
1566316317338, 11.53313, 5.151687, -10.317744, -0.13172609, 0.14198022, -0.06178534, -0.07669904, 0.10226539
1566316317347, 11.67722, 5.1828227, -10.461446, -0.23231691, 0.16399539, -0.068176925, -0.10652645, 0.10439592
1566316317348, 11.640773, 5.142107, -10.442286, -0.1580713, 0.2008977, -0.060720075, -0.14807177, 0.12144015
1566316317357, 11.598099, 5.225933, -10.35367, -0.083825685, 0.22773, -0.05219796, -0.18109496, 0.12783173
1566316317363, 11.454016, 5.3025737, -10.152488, 0.06466553, 0.24330044, -0.03195793, -0.20453078, 0.12783173
1566316317367, 11.241509, 5.3217335, -9.901011, 0.14370118, 0.25396448, -0.008522116, -0.22050974, 0.1257012
1566316317368, 11.079534, 5.2594633, -9.74773, 0.27542725, 0.26060688, 0.015978966, -0.23222765, 0.11717909
1566316317383, 10.900722, 5.319339, -9.508228, 0.3520679, 0.2716905, 0.06391586, -0.23222765, 0.1257012
1566316317384, 10.80551, 5.2187476, -9.4507475, 0.45505372, 0.28645316, 0.101200126, -0.23435818, 0.12996227
1566316317388, 10.66643, 5.125342, -9.3453665, 0.40954837, 0.29563153, 0.1438107, -0.22796659, 0.12144015
1566316317389, 10.633307, 4.9337406, -9.417217, 0.20357667, 0.29604003, 0.16937704, -0.20772657, 0.1257012
1566316317403, 10.514045, 4.9409256, -9.280701, 0.031135255, 0.30653897, 0.1917476, -0.2034655, 0.1257012
1566316317404, 10.184199, 4.727769, -9.019644, -0.1101709, 0.30465445, 0.20772657, -0.17789917, 0.13422333
1566316317410, 10.012888, 4.7253737, -8.825647, -0.19160157, 0.29274622, 0.21198763, -0.14061491, 0.14487597
1566316317411, 9.73519, 4.4762917, -8.634046, -0.43589357, 0.30003792, 0.22690132, -0.12250541, 0.15339808
1566316317422, 9.568444, 4.358936, -8.499925, -0.55324954, 0.3166829, 0.2428803, -0.10013486, 0.1768339
1566316317423, 9.338697, 4.2008643, -8.313113, -0.67539555, 0.30934882, 0.23329292, -0.06711166, 0.1917476
1566316317428, 9.232086, 4.3469605, -8.1071415, -0.7807764, 0.31264377, 0.24074976, -0.046871636, 0.19387813
1566316317429, 8.956379, 4.287085, -7.814949, -0.87418216, 0.3097759, 0.24394555, -0.00958738, 0.19068234
1566316317438, 8.862119, 4.3445654, -7.6592727, -0.9987232, 0.28136697, 0.22583607, 0.023435818, 0.16618125
1566316317439, 8.599539, 4.4188113, -7.3000197, -1.0657837, 0.26748535, 0.2130529, 0.054328486, 0.15233281
1566316317448, 8.512162, 4.423601, -7.1539235, -1.3076807, 0.24595615, 0.19068234, 0.10439592, 0.11504856
1566316317449, 8.451522, 4.495452, -7.031778, -1.331631, 0.23315911, 0.16937704, 0.13635385, 0.084155895
1566316317464, 8.464855, 4.5792775, -6.928792, -1.6357985, 0.22830483, 0.13422333, 0.18109496, 0.036218993
1566316317465, 8.447032, 4.608018, -6.8832865, -1.6549586, 0.2489986, 0.11717909, 0.21944448, -0.010652645
1566316317468, 8.445106, 4.512217, -6.950347, -1.6286134, 0.24806027, 0.08522116, 0.22903186, -0.04261058
1566316317469, 8.522069, 4.4667115, -7.0054326, -1.8968556, 0.26536417, 0.043675844, 0.24820662, -0.083090626
1566316317485, 8.587845, 4.409231, -7.0581226, -2.1195924, 0.2896912, 0.002130529, 0.2609898, -0.1257012
1566316317486, 8.770038, 4.4643164, -7.165899, -2.3734643, 0.32433936, -0.070307456, 0.2695119, -0.16618125
1566316317489, 8.970443, 4.533772, -7.3527102, -2.4189699, 0.36600634, -0.13528858, 0.26844665, -0.20879184
1566316317489, 9.248353, 4.598438, -7.5251517, -2.7854078, 0.43313843, -0.22370553, 0.28122982, -0.24181503
1566316317505, 9.63174, 4.6918435, -7.8772197, -2.9506643, 0.51948875, -0.33129725, 0.27483824, -0.2908172
1566316317506, 9.9702215, 4.9073954, -8.131092, -3.0344899, 0.6128419, -0.43356264, 0.2876214, -0.32384038
1566316317512, 10.279444, 4.9385304, -8.461604, -3.1111305, 0.72603303, -0.5603291, 0.27803403, -0.3685815
1566316317514, 10.536168, 4.996011, -8.703502, -3.2093263, 0.8409337, -0.6711166, 0.28549087, -0.41864893
1566316317519, 10.7277975, 5.0439115, -9.0004835, -2.938689, 0.9515775, -0.7840346, 0.29294774, -0.4527374
1566316317520, 10.851757, 4.981641, -9.249566, -2.7183473, 1.0370677, -0.8767126, 0.30679616, -0.4612595
1566316317529, 10.895326, 4.87147, -9.484278, -2.2417383, 1.1253877, -0.9672601, 0.31957933, -0.47830373
1566316317530, 11.022687, 4.8355446, -9.74294, -1.7866846, 1.1847508, -1.0258497, 0.330232, -0.49215218
1566316317539, 11.144966, 4.873865, -9.965676, -1.0681788, 1.2294397, -1.0769824, 0.3323625, -0.4910869
1566316317541, 11.206297, 4.8594947, -10.085427, -0.5005591, 1.2432591, -1.0865698, 0.3334278, -0.50387007
1566316317550, 11.285345, 4.90979, -10.159674, 0.18441652, 1.2531645, -1.0929613, 0.34301516, -0.50813115
1566316317551, 11.355813, 4.7804594, -10.274634, 0.73048097, 1.2207973, -1.0599382, 0.34088463, -0.5006743
1566316317562, 11.475262, 4.679868, -10.384805, 1.3915064, 1.1683815, -1.0120013, 0.3334278, -0.479369
1566316317563, 11.427427, 4.4355764, -10.39678, 1.6789087, 1.0978867, -0.9416938, 0.34408042, -0.44741106
1566316317574, 11.433099, 4.28469, -10.384805, 2.1243825, 1.0192487, -0.8692558, 0.350472, -0.40053943
1566316317575, 11.27064, 3.9278321, -10.296189, 2.3638844, 0.90703684, -0.7701862, 0.3355583, -0.34194988
1566316317584, 11.253534, 3.7218604, -10.293795, 2.6129665, 0.79470867, -0.664725, 0.31638354, -0.29933932
1566316317585, 11.092935, 3.4775686, -10.102193, 2.9841945, 0.66652787, -0.5571333, 0.28868666, -0.2247708
1566316317594, 10.8422985, 3.417693, -9.836346, 3.0201197, 0.5371891, -0.44101948, 0.257794, -0.16618125
1566316317595, 10.684566, 3.3410523, -9.711804, 2.9458742, 0.42934254, -0.34301516, 0.23009712, -0.11717909
1566316317600, 10.408871, 3.2739918, -9.469908, 2.818938, 0.3204676, -0.23861924, 0.20240025, -0.06924219
1566316317601, 10.190053, 3.4703834, -9.259146, 2.4620802, 0.2211495, -0.13528858, 0.1736381, -0.02130529
1566316317612, 10.083301, 3.5949244, -9.144185, 2.2656887, 0.17080478, -0.039414786, 0.16618125, 0.002130529
1566316317613, 10.001647, 3.8248463, -9.002879, 2.0860622, 0.15888518, 0.041545313, 0.1470065, 0.043675844
1566316317621, 9.811862, 3.899092, -8.784932, 1.9734962, 0.1967887, 0.12996227, 0.13741912, 0.054328486
1566316317622, 9.695538, 3.9565725, -8.696317, 1.6501685, 0.2523103, 0.2034655, 0.13102753, 0.07137272
1566316317630, 9.435442, 3.9182522, -8.487949, 1.2765454, 0.30834943, 0.2759035, 0.11504856, 0.07563378
1566316317633, 9.312252, 3.9589674, -8.349038, 1.1567944, 0.37549627, 0.34621096, 0.10226539, 0.10333065
1566316317644, 9.234285, 4.061953, -8.255632, 0.78556645, 0.42977843, 0.4101268, 0.0777643, 0.10226539
1566316317645, 9.068046, 3.9685476, -8.147857, 0.30416748, 0.46849114, 0.45060685, 0.060720075, 0.112918034
1566316317651, 8.917985, 3.9901028, -7.975415, -0.047900394, 0.49711338, 0.47723848, 0.046871636, 0.13102753
1566316317652, 8.887385, 3.9901028, -7.9155397, -0.6394702, 0.5006448, 0.48043427, 0.035153728, 0.13635385
1566316317664, 8.9168825, 4.0882983, -7.8484793, -1.094524, 0.4938256, 0.47191215, 0.037284255, 0.14061491
1566316317665, 9.002026, 4.181704, -7.812554, -1.585503, 0.46345982, 0.43995422, 0.034088463, 0.14168017
1566316317671, 9.140865, 4.277505, -7.8365045, -1.961521, 0.42350125, 0.39947417, 0.058589544, 0.12783173
1566316317672, 9.171086, 4.358936, -7.767049, -2.186653, 0.37776205, 0.34408042, 0.07563378, 0.13635385
1566316317681, 9.377003, 4.399651, -7.91075, -2.44771, 0.32169223, 0.28229508, 0.09374327, 0.12250541
1566316317683, 9.464859, 4.3469605, -7.9778104, -2.6536818, 0.26166937, 0.2034655, 0.10226539, 0.128897
1566316317691, 9.450187, 4.3086405, -7.9610453, -2.7135572, 0.2171886, 0.13209279, 0.1107875, 0.13209279
1566316317693, 9.539818, 4.253555, -8.054451, -2.8357031, 0.1778258, 0.034088463, 0.10759171, 0.13741912
1566316317701, 9.570956, 4.3349857, -8.068821, -2.7758276, 0.18797919, -0.060720075, 0.10759171, 0.14168017
1566316317704, 9.694148, 4.3182206, -8.202942, -2.8357031, 0.23965609, -0.15233281, 0.10652645, 0.15126756
1566316317714, 9.791755, 4.485872, -8.248447, -2.7782228, 0.3001041, -0.22903186, 0.112918034, 0.15765914
1566316317716, 9.799297, 4.5744877, -8.284373, -2.543511, 0.36729538, -0.30786142, 0.111852765, 0.16618125
1566316317724, 9.881817, 4.8307548, -8.322693, -2.2465284, 0.42880833, -0.3749731, 0.112918034, 0.17470337
1566316317726, 9.991207, 4.90979, -8.48316, -1.9375709, 0.46418282, -0.41758367, 0.10972224, 0.17044231
1566316317734, 10.182358, 5.079837, -8.669971, -1.6453785, 0.50540376, -0.46232477, 0.1107875, 0.17150758
1566316317736, 10.321699, 5.1828227, -8.828042, -1.3196558, 0.53847516, -0.49747851, 0.10759171, 0.17576863
1566316317742, 10.458085, 5.2977834, -8.957374, -1.0346485, 0.555154, -0.51026165, 0.1257012, 0.17896444
1566316317743, 10.515723, 5.3313136, -9.031619, -0.7664063, 0.55921614, -0.51452273, 0.12783173, 0.17789917
1566316317752, 10.575987, 5.4103494, -9.081915, -0.31374758, 0.5675171, -0.5134575, 0.13848437, 0.19813919
1566316317753, 10.771157, 5.5468655, -9.2328005, -0.07424561, 0.5350226, -0.4878911, 0.1257012, 0.18002969
1566316317765, 10.796346, 5.616321, -9.2184305, 0.19639161, 0.51033396, -0.4612595, 0.12357068, 0.18002969
1566316317766, 10.978661, 5.7791824, -9.328602, 0.3305127, 0.48143116, -0.4314321, 0.12144015, 0.17576863
1566316317775, 10.9530325, 5.8749833, -9.2256155, 0.5843848, 0.43908155, -0.39095205, 0.11717909, 0.16192019
1566316317776, 10.969409, 5.815108, -9.266331, 0.8047266, 0.39018062, -0.34194988, 0.10546118, 0.1555286
1566316317785, 10.970619, 5.858218, -9.237591, 0.8382569, 0.33405682, -0.28442562, 0.096939065, 0.14594123
1566316317787, 11.004889, 5.8989334, -9.2328005, 1.0322535, 0.2967292, -0.2396845, 0.094808534, 0.1470065
1566316317795, 10.905092, 5.841453, -9.153765, 1.0035132, 0.24396881, -0.17789917, 0.094808534, 0.13741912
1566316317797, 10.797107, 5.7145166, -9.110655, 0.9580079, 0.20038302, -0.10865697, 0.10439592, 0.13209279
1566316317805, 10.730522, 5.5875807, -9.086704, 1.1639795, 0.18395177, -0.05219796, 0.099069595, 0.14594123
1566316317807, 10.503797, 5.398374, -8.926238, 1.2286451, 0.19383717, 0.03195793, 0.10333065, 0.16085494
1566316317815, 10.27085, 5.237908, -8.749006, 1.2286451, 0.21627492, 0.099069595, 0.094808534, 0.16724652
1566316317817, 10.063105, 5.0822315, -8.631651, 0.9651929, 0.27209532, 0.1736381, 0.07669904, 0.1949434
1566316317825, 9.871744, 5.017566, -8.464, 0.79754156, 0.31246227, 0.221575, 0.070307456, 0.20879184
1566316317827, 9.655944, 4.8020144, -8.358619, 0.55803955, 0.34448913, 0.25992453, 0.07563378, 0.2130529
1566316317833, 9.65665, 4.960086, -8.279583, 0.31135255, 0.387964, 0.2972088, 0.06498113, 0.24074976
1566316317835, 9.579562, 5.017566, -8.159832, 0.09580079, 0.41565248, 0.33449304, 0.058589544, 0.2396845
1566316317843, 9.72742, 5.1924024, -8.224498, -0.13891114, 0.42547414, 0.35579833, 0.054328486, 0.22690132
1566316317845, 9.793361, 5.3121533, -8.2197075, -0.35685793, 0.4388954, 0.37603834, 0.05539375, 0.21944448
1566316317853, 9.916023, 5.3480787, -8.329878, -0.58198977, 0.45175502, 0.39095205, 0.051132694, 0.22050974
1566316317854, 9.822153, 5.364844, -8.193362, -0.7496411, 0.44749728, 0.39414784, 0.05539375, 0.20453078
1566316317863, 9.860398, 5.3792143, -8.214917, -0.8981324, 0.45174876, 0.40373522, 0.04261058, 0.19813919
1566316317864, 9.840354, 5.388794, -8.155042, -1.1352394, 0.4432524, 0.40053943, 0.029827405, 0.18748654
1566316317873, 9.892773, 5.2929935, -8.267608, -1.223855, 0.44170082, 0.39734364, 0.0063915867, 0.19281286
1566316317876, 9.800823, 5.127737, -8.236472, -1.3867164, 0.4421181, 0.39734364, -0.020240024, 0.19281286
1566316317886, 9.841773, 4.9552956, -8.3250885, -1.7315992, 0.45030707, 0.3930826, -0.06498113, 0.20985709
1566316317888, 9.778094, 4.7708793, -8.356223, -1.7387843, 0.46272838, 0.3834952, -0.10546118, 0.23648871
1566316317897, 9.754313, 4.663103, -8.346643, -1.9327809, 0.46907818, 0.35899413, -0.14807177, 0.26312032
1566316317898, 9.761809, 4.629573, -8.310719, -2.189048, 0.4737673, 0.32490566, -0.18855181, 0.28868666
1566316317908, 9.886354, 4.8044095, -8.296348, -2.4141798, 0.46594942, 0.2695119, -0.23009712, 0.30253512
1566316317910, 9.902659, 4.967271, -8.164622, -2.5938063, 0.45175502, 0.22690132, -0.24181503, 0.30679616
1566316317914, 10.012328, 5.3169436, -8.095166, -2.5387208, 0.42934915, 0.17576863, -0.2514024, 0.30040458
1566316317916, 10.109927, 5.5468655, -8.032896, -2.6297317, 0.3980427, 0.12250541, -0.25246766, 0.28229508
1566316317927, 10.2151165, 5.7863674, -7.9778104, -2.687212, 0.34363818, 0.066046394, -0.2247708, 0.2514024
1566316317929, 10.155586, 5.9947343, -7.8412943, -2.3902297, 0.28128427, 0.018109497, -0.18642128, 0.20985709
1566316317935, 10.17798, 6.10251, -7.8365045, -2.2225783, 0.23223254, -0.018109497, -0.1555286, 0.17150758
1566316317938, 10.208915, 6.2510014, -7.822134, -1.9902613, 0.16900145, -0.051132694, -0.10333065, 0.12357068
1566316317947, 10.169493, 6.1815457, -7.8508744, -1.8896705, 0.13560696, -0.083090626, -0.06498113, 0.08522116
1566316317950, 10.156777, 6.219866, -7.829319, -1.7818946, 0.11995938, -0.1107875, -0.004261058, 0.04580637
1566316317955, 10.0382595, 6.0617948, -7.829319, -1.6501685, 0.15123004, -0.14168017, 0.05219796, 0.008522116
1566316317958, 9.934245, 5.853428, -7.8556643, -1.6477735, 0.20672445, -0.17789917, 0.10333065, -0.020240024
1566316317966, 9.796718, 5.8103175, -7.7574687, -1.4274317, 0.2638869, -0.20879184, 0.15233281, -0.053263225
1566316317968, 9.722529, 5.647456, -7.805369, -1.3076807, 0.30098954, -0.22690132, 0.18855181, -0.05965481
1566316317975, 9.594777, 5.4127445, -7.8508744, -1.0609937, 0.33465415, -0.24394555, 0.21837921, -0.06924219
1566316317978, 9.527257, 5.1636624, -7.9610453, -0.852627, 0.34253347, -0.24074976, 0.23329292, -0.070307456
1566316317984, 9.31025, 4.720584, -7.9873905, -0.77359134, 0.35824737, -0.25672874, 0.24501082, -0.049002163
1566316317988, 9.241, 4.4523416, -8.064031, -0.7376661, 0.36137754, -0.25566345, 0.2545982, -0.020240024
1566316317994, 9.054014, 4.191284, -8.006551, -0.5508545, 0.36726913, -0.25566345, 0.26312032, 0.017044231
1566316317997, 8.978372, 4.061953, -7.9945755, -0.44547364, 0.3692198, -0.25672874, 0.2609898, 0.0479369
1566316318005, 8.896421, 3.9733377, -7.9466753, -0.45744875, 0.36965904, -0.24820662, 0.26418558, 0.07243799
1566316318008, 9.122478, 4.2296047, -8.073611, -0.38320315, 0.3522097, -0.22796659, 0.2545982, 0.08522116
1566316318016, 9.356979, 4.4643164, -8.222102, -0.14130616, 0.3516438, -0.21944448, 0.2545982, 0.10333065
1566316318019, 9.690072, 4.8020144, -8.416099, 0.086220704, 0.31338698, -0.17470337, 0.2396845, 0.101200126
1566316318025, 10.067451, 5.017566, -8.727451, 0.09580079, 0.27832162, -0.13315806, 0.21944448, 0.10759171
1566316318028, 10.415265, 5.142107, -9.05557, 0.1820215, 0.24732496, -0.09374327, 0.20026971, 0.1107875
1566316318035, 10.507552, 5.242698, -9.10347, 0.22273682, 0.21722256, -0.046871636, 0.18216023, 0.10865697
1566316318044, 10.640135, 5.1157618, -9.328602, 0.13651612, 0.18787956, -0.004261058, 0.14594123, 0.11824436
1566316318047, 10.674886, 5.0918117, -9.381292, 0.1341211, 0.19350024, 0.041545313, 0.111852765, 0.15233281
1566316318049, 10.6139965, 5.022356, -9.350157, 0.086220704, 0.18982641, 0.06711166, 0.05965481, 0.16724652
1566316318058, 10.77689, 5.0774417, -9.505833, -0.009580079, 0.23584002, 0.10546118, 0.0031957934, 0.21092236
1566316318060, 10.867781, 5.113367, -9.589659, -0.023950197, 0.29108438, 0.14487597, -0.056459017, 0.24607609
1566316318066, 11.006548, 5.2762284, -9.659114, -0.083825685, 0.35582542, 0.17470337, -0.112918034, 0.28868666
1566316318068, 11.088007, 5.369634, -9.699829, -0.15567628, 0.43139133, 0.22050974, -0.17470337, 0.3270362
1566316318076, 11.001434, 5.2738333, -9.651929, -0.24189699, 0.49497327, 0.23435818, -0.23116238, 0.36964676
1566316318078, 10.933848, 5.4486694, -9.465117, -0.5221143, 0.5366005, 0.24181503, -0.27377295, 0.3930826
1566316318088, 10.672272, 5.494175, -9.11784, -0.7592212, 0.5699254, 0.23542345, -0.30679616, 0.41864893
1566316318091, 10.525135, 5.6594315, -8.823253, -0.9484278, 0.5873859, 0.20879184, -0.34621096, 0.4261058
1566316318096, 10.390558, 5.8749833, -8.52148, -0.91250247, 0.59236944, 0.18535602, -0.36112466, 0.4314321
1566316318099, 10.332953, 6.100115, -8.279583, -1.0035132, 0.57260317, 0.15233281, -0.36218992, 0.4165184
1566316318107, 10.339015, 6.365962, -8.080796, -1.0346485, 0.534837, 0.11930962, -0.36112466, 0.37603834
1566316318109, 10.223384, 6.5407987, -7.817344, -0.79035646, 0.49466598, 0.0958738, -0.35260254, 0.3334278
1566316318118, 9.9746895, 6.5336137, -7.5131764, -0.5987549, 0.44898212, 0.0958738, -0.330232, 0.28868666
1566316318120, 9.926699, 6.6246243, -7.3838453, -0.364043, 0.389913, 0.099069595, -0.30360037, 0.22370553
1566316318128, 9.683238, 6.5336137, -7.1467385, -0.033530276, 0.35548884, 0.111852765, -0.28868666, 0.17470337
1566316318130, 9.604048, 6.631809, -6.940767, 0.28740236, 0.32259402, 0.13635385, -0.26738137, 0.11824436
1566316318137, 9.437237, 6.502478, -6.821016, 0.5029541, 0.3120152, 0.18429075, -0.24607609, 0.053263225
1566316318140, 9.300288, 6.449788, -6.672525, 0.61073, 0.3306063, 0.22690132, -0.2396845, -0.01917476
1566316318150, 9.227175, 6.3923073, -6.6102543, 0.76401126, 0.39228502, 0.28975195, -0.2514024, -0.082025364
1566316318152, 9.088306, 6.1528053, -6.6246243, 0.9244776, 0.47244328, 0.36112466, -0.26738137, -0.14594123
1566316318158, 8.946394, 5.951624, -6.6294146, 0.8167017, 0.5726498, 0.44315, -0.30786142, -0.1917476
1566316318160, 8.896357, 5.6785917, -6.7970657, 0.83586186, 0.64751697, 0.49321744, -0.34940675, -0.23222765
1566316318167, 8.84519, 5.5516553, -6.861731, 0.57719976, 0.7327223, 0.5603291, -0.39414784, -0.25992453
1566316318169, 8.861802, 5.384004, -7.0341725, 0.25387207, 0.8057161, 0.6018744, -0.4463458, -0.29614353
1566316318177, 9.021246, 5.381609, -7.2401443, -0.038320314, 0.86216295, 0.6359629, -0.49002165, -0.314253
1566316318180, 9.318415, 5.47262, -7.5251517, -0.50534916, 0.9107575, 0.644485, -0.54648066, -0.33981937
1566316318188, 9.724254, 5.6187162, -7.862849, -1.0801538, 0.9371433, 0.6306366, -0.58909124, -0.3653857
1566316318190, 10.228174, 5.8821683, -8.231683, -1.5016773, 0.94538003, 0.58909124, -0.6295713, -0.38775626
1566316318197, 10.738619, 6.0450296, -8.669971, -1.8992506, 0.95064455, 0.54435015, -0.6593987, -0.41545314
1566316318199, 11.423378, 6.5120583, -9.1202345, -2.215393, 0.9450775, 0.48469532, -0.6775082, -0.4463458
1566316318207, 11.977716, 6.75156, -9.592053, -2.42376, 0.913851, 0.4016047, -0.67537767, -0.46658584
1566316318209, 12.372226, 6.9000516, -9.922566, -2.6464968, 0.87185436, 0.314253, -0.6466155, -0.49321744
1566316318217, 12.649661, 7.151529, -10.020762, -2.907554, 0.8173162, 0.21092236, -0.60080916, -0.5123922
1566316318224, 12.939932, 7.2760696, -10.279425, -2.9722195, 0.7660326, 0.08948222, -0.53795856, -0.53795856
1566316318229, 12.882546, 7.2401443, -10.217154, -3.0249097, 0.7268235, -0.029827405, -0.45806372, -0.5635249
1566316318230, 12.910956, 7.192244, -10.28661, -3.0249097, 0.71862173, -0.1438107, -0.38562572, -0.58909124
1566316318242, 12.640899, 7.1778736, -10.066268, -2.6345215, 0.74182874, -0.28229508, -0.30679616, -0.6135923
1566316318243, 12.544813, 7.1419487, -10.027947, -2.4093897, 0.8007565, -0.39414784, -0.22903186, -0.6583334
1566316318249, 12.399951, 7.0988383, -9.922566, -2.215393, 0.8672175, -0.4910869, -0.15978967, -0.69668293
1566316318250, 12.125506, 6.945557, -9.800421, -1.6549586, 0.93873125, -0.59122175, -0.07350325, -0.7254451
1566316318262, 11.915233, 6.792276, -9.740545, -0.97956306, 0.998654, -0.6508766, 0.0031957934, -0.757403
1566316318263, 11.696651, 6.598279, -9.64714, -0.45505372, 1.0412278, -0.6775082, 0.084155895, -0.7861652
1566316318272, 11.51294, 6.4018874, -9.565708, 0.24668702, 1.0790141, -0.69029135, 0.14807177, -0.8159926
1566316318273, 11.358995, 6.12646, -9.515413, 0.974773, 1.0847008, -0.6625945, 0.20879184, -0.8330368
1566316318282, 11.275119, 5.760022, -9.592053, 1.3939015, 1.086095, -0.61891866, 0.2545982, -0.85540736
1566316318283, 11.131264, 5.4582496, -9.529783, 1.8154249, 1.0629749, -0.5635249, 0.30253512, -0.8490158
1566316318292, 11.104972, 5.2043777, -9.577683, 2.1219873, 1.0456887, -0.5028048, 0.34088463, -0.8511463
1566316318293, 10.923994, 5.0702567, -9.407638, 2.2632935, 1.0091456, -0.406931, 0.36325517, -0.8490158
1566316318302, 10.864456, 4.6966333, -9.484278, 2.454895, 0.9756392, -0.30360037, 0.38456047, -0.84368944
1566316318303, 11.003263, 4.526587, -9.7142, 2.4932153, 0.9396146, -0.20453078, 0.40586576, -0.8223842
1566316318313, 10.884077, 4.181704, -9.759705, 2.3926246, 0.8895277, -0.101200126, 0.4016047, -0.78723043
1566316318315, 10.79388, 3.9829175, -9.7740755, 2.2608986, 0.8649961, -0.0010652645, 0.4079963, -0.76272935
1566316318319, 10.534634, 3.6140847, -9.69504, 1.9806812, 0.8248539, 0.082025364, 0.3898868, -0.7222493
1566316318321, 10.225498, 3.3602126, -9.527389, 1.5807129, 0.7766888, 0.15659387, 0.36218992, -0.6689861
1566316318330, 10.058834, 3.1494508, -9.465117, 1.2933106, 0.7364938, 0.21411815, 0.32490566, -0.62531024
1566316318332, 9.916522, 3.046465, -9.390872, 0.9316626, 0.6953893, 0.26418558, 0.27696875, -0.58056915
1566316318341, 9.800115, 3.0919704, -9.283096, 0.55324954, 0.6546871, 0.30253512, 0.2130529, -0.5400891
1566316318343, 9.659659, 3.0416749, -9.168135, 0.050295413, 0.61833256, 0.30360037, 0.16618125, -0.5123922
1566316318349, 9.709273, 3.1278956, -9.187295, -0.28261232, 0.58363855, 0.30146983, 0.112918034, -0.48682585
1566316318351, 9.555633, 3.1422658, -9.0076685, -0.5460645, 0.54869807, 0.30040458, 0.054328486, -0.45593318
1566316318363, 9.528954, 3.1159205, -8.983719, -0.62031007, 0.5177065, 0.294013, 0.0031957934, -0.4261058
1566316318368, 9.596892, 3.3841627, -8.954978, -0.67539555, 0.5008794, 0.28975195, -0.046871636, -0.40586576
1566316318370, 9.626356, 3.535049, -8.926238, -0.70174074, 0.49953294, 0.29614353, -0.094808534, -0.39095205
1566316318372, 9.74103, 3.7386258, -8.971744, -0.6466553, 0.50876504, 0.29614353, -0.1470065, -0.386691
1566316318380, 9.78986, 3.7697608, -9.017249, -0.56522465, 0.5283991, 0.30679616, -0.18855181, -0.386691
1566316318381, 9.68212, 3.9541774, -8.825647, -0.46463382, 0.5509982, 0.31957933, -0.22050974, -0.39095205
1566316318390, 9.716787, 3.9206471, -8.871153, -0.5891748, 0.58776444, 0.330232, -0.257794, -0.41225734
1566316318392, 9.598444, 3.915857, -8.746612, -0.5412744, 0.5906505, 0.32490566, -0.2908172, -0.39840892
1566316318403, 9.552229, 3.8320315, -8.722662, -0.68976563, 0.59721446, 0.32810146, -0.30466563, -0.39521313
1566316318405, 9.566299, 3.8583767, -8.701106, -0.9580079, 0.58068246, 0.30253512, -0.30466563, -0.39095205
1566316318409, 9.515252, 3.8056862, -8.636441, -1.21188, 0.55671054, 0.26844665, -0.2972088, -0.386691
1566316318412, 9.389625, 3.767366, -8.504715, -1.2813355, 0.52844423, 0.25353295, -0.2727077, -0.3749731
1566316318422, 9.425952, 3.7098854, -8.538245, -1.477727, 0.49277204, 0.19813919, -0.24607609, -0.37816888
1566316318424, 9.417277, 3.6859353, -8.514295, -1.6142433, 0.4572976, 0.15339808, -0.2247708, -0.36751625
1566316318431, 9.357587, 3.5661843, -8.499925, -1.6118482, 0.4155023, 0.10439592, -0.18748654, -0.35579833
1566316318433, 9.376457, 3.5182838, -8.5598, -1.5064673, 0.35682386, 0.053263225, -0.14487597, -0.32170987
1566316318440, 9.311737, 3.3314724, -8.571775, -1.4609619, 0.31650546, 0.018109497, -0.098004326, -0.30040458
1566316318443, 9.373677, 3.3650026, -8.672366, -1.1543995, 0.28595158, -0.010652645, -0.070307456, -0.27696875
1566316318451, 9.175464, 3.0967603, -8.581355, -0.97956306, 0.23962058, -0.037284255, -0.04580637, -0.23222765
1566316318454, 9.320701, 3.1015503, -8.749006, -0.8430469, 0.19140996, -0.053263225, -0.037284255, -0.18002969
1566316318461, 9.251487, 3.05844, -8.705896, -0.6658155, 0.14819816, -0.05965481, -0.035153728, -0.13102753
1566316318463, 9.40295, 3.0704153, -8.873548, -0.4981641, 0.10637187, -0.06711166, -0.033023197, -0.07563378
1566316318472, 9.3853855, 3.1039455, -8.844808, -0.46942386, 0.07726657, -0.070307456, -0.029827405, -0.011717909
1566316318474, 9.521138, 3.3242872, -8.907078, -0.51492923, 0.08274163, -0.068176925, -0.043675844, 0.017044231
1566316318481, 9.67387, 3.5254688, -9.002879, -0.32093263, 0.107216634, -0.07243799, -0.0479369, 0.0628506
1566316318483, 9.84833, 3.8296363, -9.06994, -0.244292, 0.13924436, -0.07350325, -0.06924219, 0.0958738
1566316318491, 9.949068, 4.030818, -9.093889, -0.1939966, 0.15283482, -0.068176925, -0.083090626, 0.10865697
1566316318493, 9.960557, 4.28469, -8.988508, -0.24668702, 0.1750797, -0.07243799, -0.098004326, 0.1257012
1566316318501, 10.053071, 4.4427614, -9.0148535, -0.24189699, 0.18322858, -0.07669904, -0.101200126, 0.13209279
1566316318503, 10.009807, 4.6726832, -8.851993, -0.06706055, 0.19160847, -0.07669904, -0.12037488, 0.12783173
1566316318510, 10.031881, 4.7062135, -8.859178, -0.07185059, 0.21164742, -0.0777643, -0.14594123, 0.13209279
1566316318512, 10.004979, 4.7253737, -8.818462, -0.07185059, 0.23305689, -0.07882957, -0.16831179, 0.14061491
1566316318521, 10.026775, 4.8020144, -8.801697, 0.083825685, 0.25107947, -0.07243799, -0.18855181, 0.14913702
1566316318522, 10.020386, 4.8283596, -8.780142, 0.06466553, 0.2515513, -0.0628506, -0.1917476, 0.15020229
1566316318531, 10.078365, 4.86189, -8.825647, 0.2083667, 0.27171764, -0.058589544, -0.21944448, 0.14913702
1566316318537, 10.0979805, 4.8379397, -8.859178, 0.2802173, 0.2791928, -0.04261058, -0.22264028, 0.16298546
1566316318541, 10.061166, 4.854705, -8.804092, 0.38320315, 0.29791048, -0.0127831735, -0.23116238, 0.18748654
1566316318542, 10.125208, 4.8499146, -8.871153, 0.5484595, 0.32005125, 0.017044231, -0.24820662, 0.20133498
1566316318551, 10.169796, 4.9361353, -8.873548, 0.56522465, 0.34623718, 0.04474111, -0.25672874, 0.22796659
1566316318553, 10.33768, 5.1660576, -8.938213, 0.5364844, 0.36023113, 0.07243799, -0.26844665, 0.22903186
1566316318564, 10.320952, 5.1828227, -8.914263, 0.44307864, 0.37821987, 0.09267801, -0.27377295, 0.24394555
1566316318566, 10.392854, 5.225933, -8.978929, 0.28261232, 0.37723902, 0.099069595, -0.26525086, 0.24927188
1566316318572, 10.390226, 5.2810183, -8.945398, 0.21794678, 0.3714536, 0.12037488, -0.23648871, 0.25992453
1566316318574, 10.172644, 5.1564775, -8.768167, 0.11256592, 0.374484, 0.14274544, -0.20772657, 0.27696875
1566316318582, 10.157961, 5.1804276, -8.737032, 0.10777588, 0.38825494, 0.14274544, -0.19707392, 0.30253512
1566316318584, 10.022659, 5.0726514, -8.643626, -0.098195806, 0.38898495, 0.14487597, -0.17576863, 0.3153183
1566316318594, 10.12071, 5.1061816, -8.737032, -0.14130616, 0.39925823, 0.15020229, -0.15339808, 0.33662358
1566316318596, 9.955583, 5.039121, -8.581355, -0.28500733, 0.40336686, 0.1438107, -0.1438107, 0.34834146
1566316318603, 9.920901, 5.007986, -8.55501, -0.39517823, 0.42333773, 0.1470065, -0.13635385, 0.37284255
1566316318605, 9.872478, 5.0846267, -8.452024, -0.41912845, 0.4442357, 0.15339808, -0.11930962, 0.39947417
1566316318613, 9.791532, 5.0846267, -8.356223, -0.4406836, 0.45896706, 0.14274544, -0.12250541, 0.41864893
1566316318615, 9.853412, 5.2810183, -8.310719, -0.364043, 0.46891123, 0.14913702, -0.12676647, 0.4261058
1566316318623, 9.871332, 5.2810183, -8.327483, -0.45505372, 0.48504755, 0.14594123, -0.12144015, 0.4463458
1566316318625, 9.895349, 5.3935843, -8.284373, -0.44307864, 0.4896973, 0.1470065, -0.13422333, 0.44741106
1566316318632, 9.9781475, 5.585186, -8.255632, -0.4622388, 0.48651692, 0.1555286, -0.11930962, 0.44528055
1566316318634, 9.988826, 5.7145166, -8.181387, -0.43110353, 0.47642577, 0.14913702, -0.11824436, 0.43675843
1566316318642, 9.981887, 5.7073317, -8.167017, -0.60354495, 0.47696972, 0.1555286, -0.11611383, 0.43569317
1566316318644, 10.035113, 5.858218, -8.131092, -0.51971924, 0.45479432, 0.165116, -0.11824436, 0.406931
1566316318652, 9.906606, 5.726492, -8.059241, -0.62989014, 0.45438993, 0.15020229, -0.13209279, 0.4079963
1566316318655, 9.9435215, 5.7815776, -8.054451, -0.7568262, 0.43762666, 0.1470065, -0.14274544, 0.386691
1566316318669, 9.934256, 5.7791824, -8.040081, -0.8047266, 0.43677142, 0.14594123, -0.165116, 0.37710363
1566316318671, 9.989141, 5.7815776, -8.087981, -0.9699829, 0.4341799, 0.13528858, -0.18535602, 0.3685815
1566316318672, 9.938751, 5.728887, -8.056846, -1.0226734, 0.43463442, 0.12037488, -0.21518342, 0.35792887
1566316318674, 9.942037, 5.7073317, -8.066426, -1.096919, 0.4352684, 0.10546118, -0.24181503, 0.34621096
1566316318688, 10.052819, 5.709727, -8.188572, -1.1855347, 0.4328973, 0.07563378, -0.26418558, 0.33449304
1566316318689, 10.067092, 5.7719975, -8.133487, -1.3699512, 0.42698506, 0.043675844, -0.27483824, 0.32384038
1566316318694, 10.146178, 5.839058, -8.171807, -1.4394068, 0.423591, 0.0127831735, -0.28016454, 0.3174488
1566316318695, 10.267095, 5.927674, -8.255632, -1.456172, 0.41730776, -0.03195793, -0.2727077, 0.314253
1566316318706, 10.331352, 5.992339, -8.284373, -1.4825171, 0.40400636, -0.07137272, -0.26418558, 0.2972088
1566316318708, 10.510021, 6.0091043, -8.47837, -1.5711329, 0.39751497, -0.099069595, -0.24074976, 0.30040458
1566316318715, 10.653618, 6.0570045, -8.641231, -1.463357, 0.37960052, -0.14487597, -0.21944448, 0.27377295
1566316318717, 10.977432, 6.246211, -8.892708, -1.5519727, 0.37494588, -0.19068234, -0.18855181, 0.26205507
1566316318726, 11.313826, 6.327642, -9.24717, -1.5663428, 0.38480383, -0.23329292, -0.15978967, 0.2609898
1566316318729, 11.770969, 6.567144, -9.642349, -1.5663428, 0.40126124, -0.28868666, -0.12463594, 0.24927188
1566316318735, 12.023993, 6.591094, -9.924961, -1.6214283, 0.4335744, -0.33768883, -0.09267801, 0.25566345
1566316318737, 12.101047, 6.456973, -10.1189575, -1.5328126, 0.47760335, -0.38456047, -0.041545313, 0.28016454
1566316318746, 12.164219, 6.3635674, -10.269844, -1.4154567, 0.523847, -0.4261058, 0.0053263223, 0.30466563
1566316318766, 12.021276, 6.231841, -10.212363, -1.1759547, 0.56395066, -0.45380265, 0.040480047, 0.3323625
1566316318768, 11.803371, 6.0450296, -10.102193, -0.85023195, 0.61341196, -0.4878911, 0.0628506, 0.36645097
1566316318771, 11.513813, 5.8989334, -9.872271, -0.5556446, 0.6600498, -0.5123922, 0.09161274, 0.40586576
1566316318773, 11.255137, 5.8989334, -9.577683, -0.38559815, 0.66862804, -0.50813115, 0.12037488, 0.41758367
1566316318775, 11.062817, 5.980364, -9.307046, -0.0071850587, 0.6899559, -0.5091964, 0.14274544, 0.44315
1566316318779, 10.89625, 6.1719656, -8.974138, 0.3161426, 0.687793, -0.49534798, 0.17150758, 0.44528055
1566316318780, 10.694584, 6.219866, -8.679551, 0.5939649, 0.67857766, -0.4676511, 0.19920446, 0.4495416
1566316318784, 10.444739, 6.1695704, -8.368198, 1.0011182, 0.63162637, -0.406931, 0.21731395, 0.4314321
1566316318785, 10.23657, 6.241421, -7.9849954, 1.4394068, 0.58597004, -0.35579833, 0.21837921, 0.4111921
1566316318794, 10.154769, 6.423443, -7.697593, 1.6142433, 0.5151575, -0.27483824, 0.22370553, 0.37390783
1566316318796, 10.0987, 6.4905033, -7.510782, 1.8561403, 0.42511126, -0.16831179, 0.20985709, 0.3291667
1566316318804, 9.9429655, 6.605464, -7.151529, 2.0213966, 0.34679556, -0.06178534, 0.18855181, 0.28442562
1566316318805, 9.900764, 6.6174393, -7.038963, 2.1650977, 0.28734115, 0.041545313, 0.1768339, 0.22264028
1566316318814, 9.791023, 6.7659307, -6.816226, 1.9040406, 0.25787762, 0.13209279, 0.1587244, 0.15446335
1566316318815, 9.785994, 6.8928666, -6.7563505, 1.6142433, 0.2807856, 0.22796659, 0.14487597, 0.07669904
1566316318824, 9.70129, 6.9311867, -6.662945, 1.2957057, 0.33014265, 0.30253512, 0.13209279, -0.004261058
1566316318825, 9.646964, 6.945557, -6.6461797, 0.80712163, 0.40123436, 0.35899413, 0.14168017, -0.10972224
1566316318838, 9.606682, 6.943162, -6.631809, 0.3161426, 0.46963546, 0.40266997, 0.13209279, -0.20240025
1566316318840, 9.59165, 6.8976564, -6.6581545, -0.30177248, 0.51161647, 0.4101268, 0.13848437, -0.2727077
1566316318847, 9.598278, 6.7946706, -6.72761, -0.83586186, 0.5541935, 0.4048005, 0.14807177, -0.34834146
1566316318849, 9.659315, 6.574329, -6.950347, -1.331631, 0.59291995, 0.37390783, 0.14487597, -0.43675843
1566316318859, 9.846215, 6.452183, -7.213799, -1.8106349, 0.6222202, 0.330232, 0.14487597, -0.5070659
1566316318860, 9.891434, 6.1384354, -7.431746, -2.2201831, 0.6508356, 0.26738137, 0.15765914, -0.572047
1566316318868, 10.064986, 5.944439, -7.6233473, -2.802173, 0.67678595, 0.17789917, 0.16937704, -0.6306366
1566316318870, 10.167656, 5.726492, -7.810159, -3.0967603, 0.69620883, 0.0777643, 0.18429075, -0.6668556
1566316318879, 10.273278, 5.4031644, -7.9778104, -3.5637891, 0.7341357, -0.04580637, 0.20985709, -0.70200926
1566316318880, 10.407173, 5.225933, -8.178992, -3.755391, 0.77492255, -0.18748654, 0.23329292, -0.71479243
1566316318889, 10.6555805, 5.007986, -8.538245, -3.9445972, 0.8324693, -0.3206446, 0.25885928, -0.7233146
1566316318890, 10.831373, 4.9169755, -8.749006, -4.0739284, 0.90845823, -0.45167214, 0.3057309, -0.72651035
1566316318899, 10.847179, 4.7804594, -8.919053, -3.906277, 0.9884747, -0.58909124, 0.34514567, -0.71479243
1566316318900, 10.997172, 4.6583133, -9.251961, -3.6931202, 1.0690438, -0.7073356, 0.37710363, -0.7073356
1566316318909, 10.950188, 4.567302, -9.366921, -3.3626075, 1.1435771, -0.8127968, 0.42184472, -0.6849651
1566316318911, 10.895826, 4.4834766, -9.551338, -2.7183473, 1.2092651, -0.90014845, 0.45380265, -0.6679208
1566316318916, 10.898688, 4.382886, -9.697434, -2.3519094, 1.262648, -0.96406436, 0.49534798, -0.64768076
1566316318920, 10.9298725, 4.3565407, -9.857901, -1.81782, 1.2775221, -0.99921805, 0.5134575, -0.608266
1566316318928, 10.856536, 4.239185, -9.901011, -1.3651612, 1.2899024, -1.0258497, 0.54435015, -0.5613944
1566316318931, 10.803432, 4.1960745, -9.934542, -0.64186525, 1.2989737, -1.0301107, 0.58909124, -0.52837116
1566316318936, 10.731527, 4.0667434, -9.929751, -0.16525635, 1.2825032, -1.0173275, 0.60720074, -0.4910869
1566316318938, 10.600483, 4.018843, -9.802815, 0.3520679, 1.2441527, -0.97897804, 0.628506, -0.44101948
1566316318946, 10.473348, 4.0595584, -9.613608, 0.8885523, 1.176694, -0.902279, 0.6423545, -0.39734364
1566316318954, 10.4188175, 3.9565725, -9.560919, 1.219065, 1.0961276, -0.8223842, 0.6348976, -0.34940675
1566316318956, 10.366674, 3.915857, -9.445957, 1.705254, 1.007226, -0.73609775, 0.61891866, -0.29933932
1566316318958, 10.198897, 3.899092, -9.235196, 1.8776954, 0.91068643, -0.61891866, 0.6135923, -0.26418558
1566316318970, 10.288592, 3.9972878, -9.2184305, 2.2129982, 0.7979108, -0.5028048, 0.5752428, -0.23009712
1566316318971, 10.297238, 4.1721244, -9.0891, 2.4525, 0.68850374, -0.3749731, 0.5454154, -0.18961707
1566316318978, 10.2628145, 4.3493557, -8.8951025, 2.699187, 0.57885337, -0.23222765, 0.5028048, -0.16831179
1566316318980, 10.305953, 4.481082, -8.866363, 2.7422974, 0.48572087, -0.09161274, 0.4527374, -0.15020229
1566316318991, 10.181832, 4.488267, -8.741821, 2.6656568, 0.42464522, 0.0479369, 0.39627838, -0.14487597
1566316318994, 9.985142, 4.615203, -8.509504, 2.44771, 0.41387272, 0.18322548, 0.33981937, -0.14913702
1566316318997, 9.887163, 4.7157936, -8.442444, 2.059717, 0.43855008, 0.314253, 0.2759035, -0.13209279
1566316318999, 9.875752, 4.82357, -8.447234, 1.705254, 0.4819212, 0.4079963, 0.21092236, -0.14594123
1566316319009, 9.718105, 4.790039, -8.382568, 1.1088941, 0.54217356, 0.49747851, 0.15765914, -0.1470065
1566316319011, 9.64617, 4.7948294, -8.356223, 0.48139894, 0.56871456, 0.5400891, 0.099069595, -0.14807177
1566316319019, 9.588358, 4.751719, -8.3250885, -0.22513184, 0.59505194, 0.57311225, 0.05539375, -0.15020229
1566316319021, 9.520389, 4.718189, -8.229287, -0.8095166, 0.58842146, 0.567786, 0.018109497, -0.15339808
1566316319028, 9.610871, 4.718189, -8.229287, -1.5447876, 0.56502616, 0.54435015, -0.007456851, -0.15126756
1566316319030, 9.763346, 4.8499146, -8.202942, -2.1243825, 0.51265454, 0.4878911, -0.015978966, -0.15659387
1566316319041, 9.90786, 4.775669, -8.284373, -2.5938063, 0.45707417, 0.4314321, -0.014913702, -0.15020229
1566316319043, 9.965566, 4.7780643, -8.258028, -2.8788135, 0.3685846, 0.33981937, 0.0010652645, -0.14274544
1566316319048, 10.020761, 4.7086086, -8.248447, -3.1949563, 0.28461507, 0.24074976, 0.0127831735, -0.15126756
1566316319050, 10.085059, 4.6966333, -8.210127, -3.4991236, 0.18311706, 0.12783173, 0.037284255, -0.1257012
1566316319057, 10.144031, 4.6846585, -8.246053, -3.5997145, 0.15417287, 0.024501082, 0.080960095, -0.128897
1566316319060, 10.211985, 4.8499146, -8.236472, -3.5949244, 0.19070613, -0.08735169, 0.11717909, -0.12250541
1566316319068, 10.225573, 4.912185, -8.274793, -3.4584084, 0.28383452, -0.20453078, 0.16192019, -0.111852765
1566316319070, 10.33604, 5.0774417, -8.3250885, -3.427273, 0.38795665, -0.30466563, 0.21198763, -0.112918034
1566316319078, 10.321434, 5.127737, -8.372989, -3.182981, 0.4930886, -0.39521313, 0.27057716, -0.11717909
1566316319080, 10.324934, 5.1540823, -8.514295, -2.7470875, 0.6028277, -0.49215218, 0.3270362, -0.11930962
1566316319090, 10.356176, 5.257068, -8.557405, -2.5267458, 0.6935035, -0.5603291, 0.386691, -0.13209279
1566316319091, 10.185757, 5.1157618, -8.56938, -2.0357666, 0.7569369, -0.6103965, 0.4293016, -0.12676647
1566316319099, 10.076735, 4.976851, -8.600515, -1.6741188, 0.8051786, -0.6402239, 0.46978164, -0.13315806
1566316319101, 9.998529, 4.9289503, -8.619676, -1.1735597, 0.8122975, -0.6412892, 0.48682585, -0.10759171
1566316319110, 9.974245, 4.912185, -8.643626, -0.80233157, 0.8040913, -0.6380934, 0.479369, -0.098004326
1566316319111, 9.937214, 4.8091993, -8.691526, -0.2778223, 0.7836437, -0.6263755, 0.46232477, -0.08948222
1566316319117, 9.865078, 4.82357, -8.605306, 0.040715333, 0.72756, -0.57311225, 0.44315, -0.06711166
1566316319119, 9.896932, 4.751719, -8.674761, 0.34488282, 0.6756036, -0.53263223, 0.4133226, -0.043675844
1566316319132, 9.919891, 4.6750784, -8.725057, 0.6490503, 0.59863406, -0.4676511, 0.37284255, -0.025566347
1566316319133, 9.95606, 4.5888577, -8.792117, 0.87418216, 0.5160786, -0.40266997, 0.32277513, 0.0031957934
1566316319141, 9.949796, 4.5960426, -8.765772, 1.0178833, 0.42176268, -0.32490566, 0.26738137, 0.02876214
1566316319143, 9.997366, 4.679868, -8.782537, 0.95561284, 0.33050334, -0.24181503, 0.21837921, 0.05539375
1566316319150, 9.885679, 4.5792775, -8.705896, 0.98195803, 0.25354412, -0.17044231, 0.16724652, 0.08522116
1566316319152, 9.780495, 4.646338, -8.55501, 0.9388477, 0.18259576, -0.09161274, 0.12037488, 0.10226539
1566316319161, 9.68893, 4.6199927, -8.487949, 0.69695073, 0.15166463, -0.033023197, 0.083090626, 0.12250541
1566316319163, 9.581579, 4.5577226, -8.413704, 0.49337405, 0.16396078, 0.011717909, 0.06711166, 0.14913702
1566316319169, 9.620761, 4.756509, -8.358619, 0.26105714, 0.17904368, 0.060720075, 0.053263225, 0.15978967
1566316319171, 9.515607, 4.655918, -8.298743, -0.0071850587, 0.20329812, 0.09267801, 0.03834952, 0.1768339
1566316319181, 9.428782, 4.670288, -8.188572, -0.1939966, 0.2241844, 0.113983296, 0.036218993, 0.18961707
1566316319184, 9.27885, 4.653523, -8.018526, -0.38080812, 0.24013859, 0.11930962, 0.034088463, 0.20559604
1566316319190, 9.238485, 4.6918435, -7.941885, -0.5125342, 0.26317638, 0.13528858, 0.037284255, 0.22264028
1566316319192, 9.290281, 4.7636943, -7.951465, -0.62510014, 0.27064008, 0.13954964, 0.02876214, 0.23009712
1566316319204, 9.292272, 4.782854, -7.92512, -0.8143067, 0.27741703, 0.14594123, 0.035153728, 0.23329292
1566316319206, 9.330739, 4.756509, -7.9873905, -0.79993653, 0.2977352, 0.14274544, 0.026631612, 0.25992453
1566316319209, 9.3162365, 4.8379397, -7.91075, -0.8981324, 0.30520338, 0.14913702, 0.023435818, 0.26525086
1566316319212, 9.265121, 4.8499146, -7.838899, -0.93405765, 0.3152859, 0.15446335, 0.0031957934, 0.27483824
1566316319219, 9.274859, 4.976851, -7.774234, -0.9029224, 0.31883457, 0.15020229, -0.002130529, 0.28122982
1566316319233, 9.447722, 5.132527, -7.879615, -0.91010743, 0.31281793, 0.1555286, -0.02130529, 0.27057716
1566316319235, 9.453118, 5.1612673, -7.8580594, -0.9867481, 0.3333767, 0.16298546, -0.035153728, 0.28868666
1566316319237, 9.639974, 5.3935843, -7.92991, -0.977168, 0.3327464, 0.16831179, -0.04580637, 0.28336033
1566316319240, 9.688702, 5.4223247, -7.9873905, -0.81909674, 0.341475, 0.18002969, -0.06711166, 0.28229508
1566316319242, 9.687811, 5.4366946, -7.9730206, -0.852627, 0.3477301, 0.18429075, -0.101200126, 0.27696875
1566316319252, 9.66036, 5.47741, -7.913145, -0.8382569, 0.36981097, 0.20879184, -0.12357068, 0.2790993
1566316319255, 9.628784, 5.4582496, -7.879615, -0.91250247, 0.36851376, 0.2066613, -0.15978967, 0.25992453
1566316319260, 9.707868, 5.606741, -7.879615, -0.847837, 0.38691545, 0.21837921, -0.17470337, 0.26738137
1566316319262, 9.8475275, 5.7863674, -7.917935, -0.8933423, 0.37694412, 0.21411815, -0.18322548, 0.25033715
1566316319273, 9.900123, 5.8438478, -7.92991, -0.98914313, 0.3932125, 0.23329292, -0.18216023, 0.25885928
1566316319275, 9.986267, 5.8749833, -8.025711, -0.8933423, 0.3838102, 0.23435818, -0.18961707, 0.23755397
1566316319280, 10.034752, 5.9061184, -8.052056, -0.98914313, 0.38711628, 0.23542345, -0.1949434, 0.23755397
1566316319282, 9.993045, 5.9085135, -7.9921803, -1.0370435, 0.3837614, 0.23222765, -0.19600865, 0.23435818
1566316319293, 10.049611, 5.989944, -7.9921803, -1.1136842, 0.38086146, 0.2247708, -0.20026971, 0.23329292
1566316319295, 10.034534, 5.9875493, -7.9562554, -1.2406201, 0.36505014, 0.21411815, -0.19813919, 0.21944448
1566316319301, 10.044679, 6.0019193, -7.92512, -1.4370118, 0.33753085, 0.18642128, -0.18002969, 0.21624869
1566316319303, 10.117026, 6.080955, -7.92033, -1.6262183, 0.31299385, 0.16298546, -0.16405073, 0.21092236
1566316319313, 10.073908, 6.090535, -7.8532696, -1.6477735, 0.27242458, 0.13848437, -0.13209279, 0.19387813
1566316319316, 10.123876, 6.219866, -7.8412943, -1.5232325, 0.22774996, 0.1107875, -0.099069595, 0.17257284
1566316319322, 10.157819, 6.337222, -7.793394, -1.5112574, 0.18987723, 0.08628642, -0.07350325, 0.15233281
1566316319325, 10.176982, 6.368357, -7.795789, -1.4968873, 0.15174317, 0.0628506, -0.013848438, 0.13741912
1566316319330, 10.08018, 6.382727, -7.699988, -1.2573853, 0.123611994, 0.049002163, 0.01917476, 0.111852765
1566316319333, 9.977402, 6.3084817, -7.6377177, -1.1903248, 0.1159231, 0.034088463, 0.060720075, 0.09267801
1566316319341, 9.911601, 6.222261, -7.6329274, -1.1232642, 0.12806676, 0.026631612, 0.09374327, 0.083090626
1566316319343, 9.815374, 6.0450296, -7.668853, -0.99393314, 0.13904049, 0.027696876, 0.12144015, 0.06178534
1566316319350, 9.625601, 5.951624, -7.5059915, -0.9436377, 0.15657939, 0.027696876, 0.1438107, 0.05539375
1566316319352, 9.623992, 5.8342676, -7.592212, -0.9699829, 0.17280613, 0.00958738, 0.165116, 0.05006743
1566316319361, 9.603372, 5.760022, -7.6161623, -1.0202783, 0.19557688, 0.013848438, 0.18855181, 0.05006743
1566316319363, 9.594036, 5.6761966, -7.678433, -0.9316626, 0.210505, 0.0063915867, 0.20559604, 0.04474111
1566316319371, 9.538622, 5.6522465, -7.6353226, -0.859812, 0.22982572, 0.0, 0.2247708, 0.0479369
1566316319382, 9.637278, 5.6738014, -7.7478886, -0.8095166, 0.23765427, 0.018109497, 0.23329292, 0.041545313
1566316319383, 9.759528, 5.5061502, -8.013736, -0.8430469, 0.23712605, 0.02876214, 0.22796659, 0.058589544
1566316319385, 9.841546, 5.51094, -8.121511, -0.72569096, 0.24667026, 0.056459017, 0.23116238, 0.06498113
1566316319395, 9.972437, 5.391189, -8.341853, -0.8933423, 0.2197442, 0.05539375, 0.19387813, 0.08735169
1566316319397, 10.123381, 5.384004, -8.52627, -0.8933423, 0.21041062, 0.07137272, 0.17257284, 0.096939065
1566316319403, 10.253888, 5.362449, -8.686736, -0.9627979, 0.19834527, 0.07456851, 0.12996227, 0.12996227
1566316319404, 10.4013815, 5.343289, -8.868757, -0.9915381, 0.19615045, 0.08522116, 0.08948222, 0.15233281
1566316319415, 10.5794525, 5.374424, -9.053174, -1.0394385, 0.21074204, 0.08735169, 0.02876214, 0.18961707
1566316319417, 10.703426, 5.503755, -9.1130495, -1.1064991, 0.25410298, 0.099069595, -0.018109497, 0.23329292
1566316319423, 10.874255, 5.5636306, -9.278306, -1.099314, 0.29353017, 0.101200126, -0.07456851, 0.26525086
1566316319425, 11.003023, 5.6905665, -9.352551, -1.101709, 0.3438247, 0.11611383, -0.12037488, 0.30040458
1566316319432, 11.0059805, 5.7839723, -9.314231, -0.96040285, 0.38870478, 0.1438107, -0.16405073, 0.32170987
1566316319433, 11.019943, 5.9252787, -9.259146, -0.77359134, 0.4403925, 0.17576863, -0.2130529, 0.34301516
1566316319442, 10.933233, 5.9396486, -9.16095, -0.57719976, 0.49959424, 0.21518342, -0.25353295, 0.37284255
1566316319444, 10.84007, 6.11209, -8.938213, -0.50774413, 0.5354478, 0.24714136, -0.29294774, 0.37390783
1566316319455, 10.572034, 6.0450296, -8.655601, -0.55324954, 0.5770155, 0.26205507, -0.31957933, 0.40266997
1566316319457, 10.557308, 6.246211, -8.490345, -0.5963599, 0.606274, 0.30253512, -0.3387541, 0.4016047
