TimeStamp(epoch),mAccelerometerMagnitude(m/s^2),mAccelerometerX(m/s^2),mAccelerometerY(m/s^2),mAccelerometerZ(m/s^2),mGyroscopeMagnitude(rad/s),mGyroscopeX(rad/s),mGyroscopeY(rad/s),mGyroscopeZ(rad/s) 
1566316273478, 6.5384274, 5.096602, -3.767366, 1.6070582, 4.4219418, -2.0208068, -3.617638, 1.5435683
1566316273490, 6.7257366, 5.1876125, -4.064348, 1.343606, 4.496925, -2.1326594, -3.6389434, 1.5595472
1566316273491, 7.0625668, 5.4127445, -4.4595265, 0.8334668, 4.5778, -2.2732744, -3.6559875, 1.5563514
1566316273498, 8.585061, 6.7539554, -5.2882032, -0.34967285, 4.6090746, -2.4341292, -3.5920718, 1.5542208
1566316273499, 7.9471073, 6.0426345, -5.1540823, 0.2802173, 4.6535907, -2.5790052, -3.5420043, 1.5680692
1566316273511, 7.9916296, 6.016289, -5.252278, 0.28979737, 4.726942, -2.7206855, -3.5153728, 1.6074841
1566316273511, 7.914352, 5.8989334, -5.230723, 0.69216067, 4.8358483, -2.8623655, -3.529221, 1.6543556
1566316273520, 8.115438, 6.1528053, -5.130132, 1.2981006, 4.944822, -2.973153, -3.5697012, 1.6937705
1566316273521, 8.437663, 6.456973, -5.1876125, 1.6094532, 5.0632267, -3.0882018, -3.6197686, 1.7310548
1566316273531, 9.2236805, 7.1156034, -5.5588408, 1.8824854, 5.1867957, -3.1808796, -3.7007287, 1.7576864
1566316273531, 10.001069, 7.6137676, -6.205496, 1.8824854, 5.3219113, -3.2820797, -3.7838194, 1.7981664
1566316273539, 10.729714, 8.0305, -6.8880763, 1.7866846, 5.4872646, -3.3992589, -3.891411, 1.8471686
1566316273539, 11.333497, 8.2197075, -7.472461, 2.2465284, 5.7000165, -3.5228295, -4.0490704, 1.9196066
1566316273549, 12.215281, 8.758587, -7.8915896, 3.1973512, 5.889484, -3.625095, -4.1939464, 1.9888487
1566316273550, 12.617326, 9.208851, -8.202942, 2.6656568, 6.0926538, -3.7284255, -4.3484097, 2.0762005
1566316273560, 13.575705, 9.7621, -8.308323, 4.4691067, 6.2216964, -3.7891457, -4.4336305, 2.1667478
1566316273561, 14.025405, 10.2315235, -8.794512, 3.8320315, 6.3497286, -3.8211036, -4.543353, 2.2530344
1566316273571, 15.2731905, 11.122471, -9.0076685, 5.3313136, 6.3832273, -3.8328216, -4.542288, 2.328668
1566316273572, 15.81596, 11.682906, -9.374106, 5.0774417, 6.390003, -3.8125815, -4.5220475, 2.4181504
1566316273581, 17.055494, 12.502003, -9.788445, 6.2270513, 6.3149586, -3.7646446, -4.4346957, 2.457565
1566316273581, 18.053507, 13.258829, -10.389595, 6.495293, 6.185108, -3.6826193, -4.3068643, 2.4788704
1566316273593, 18.616726, 13.565392, -10.9644, 6.5072684, 6.0477824, -3.5760927, -4.197142, 2.4841967
1566316273593, 19.336195, 13.651612, -11.136841, 7.9682302, 5.8931065, -3.4450653, -4.068245, 2.5118935
1566316273602, 18.942558, 13.479171, -11.479329, 6.734795, 5.8131137, -3.3204293, -4.0266995, 2.5598304
1566316273603, 19.400434, 13.215718, -11.426639, 8.435259, 5.7379174, -3.1872714, -3.9787626, 2.6333337
1566316273611, 18.351803, 12.511582, -11.479329, 6.962322, 5.757118, -3.077549, -4.0053945, 2.7622306
1566316273611, 18.3934, 12.068504, -11.412269, 7.90117, 5.7741747, -2.9379995, -4.0458746, 2.8879318
1566316273622, 17.90314, 11.61345, -11.53202, 7.2569094, 5.8585925, -2.8250813, -4.1097903, 3.0743532
1566316273623, 17.51241, 11.366763, -11.567945, 6.607859, 5.9766603, -2.698315, -4.2280345, 3.2501218
1566316273631, 17.38394, 10.890154, -11.587105, 7.0245924, 6.118421, -2.6120284, -4.321778, 3.4546525
1566316273631, 16.570177, 10.607542, -11.649376, 5.132527, 6.3062787, -2.5321336, -4.4474792, 3.6847498
1566316273642, 16.602736, 10.437495, -11.819422, 5.1971927, 6.500115, -2.4543693, -4.563593, 3.9244342
1566316273642, 16.659378, 10.425521, -12.0110235, 4.9576907, 6.721524, -2.3787355, -4.6935554, 4.182228
1566316273651, 16.783716, 10.617122, -12.102035, 4.744534, 6.95, -2.292449, -4.8480186, 4.4208474
1566316273651, 17.12703, 11.053016, -12.28645, 4.495452, 7.1620345, -2.207228, -4.980111, 4.6498795
1566316273662, 17.646603, 11.704461, -12.542718, 4.133804, 7.3312845, -2.1156151, -5.082377, 4.841627
1566316273662, 18.054398, 12.149935, -12.80138, 3.803291, 7.481844, -2.0176108, -5.15588, 5.032309
1566316273672, 18.574963, 12.722344, -12.997771, 3.772156, 7.600081, -1.9036276, -5.212339, 5.1931643
1566316273673, 18.994799, 13.141473, -13.2420635, 3.5709743, 7.6972523, -1.7832527, -5.2347097, 5.354019
1566316273682, 19.334621, 13.524676, -13.34505, 3.5805542, 7.736384, -1.6575515, -5.209143, 5.474394
1566316273682, 19.696737, 14.03242, -13.335469, 3.63564, 7.7389135, -1.5030881, -5.1324444, 5.5937037
1566316273693, 20.041056, 14.504239, -13.177398, 4.1984696, 7.6988907, -1.3156016, -5.0482883, 5.6618805
1566316273694, 20.414524, 15.095809, -12.978611, 4.519402, 7.587815, -1.1291803, -4.91513, 5.6693373
1566316273701, 20.798254, 15.637083, -12.827725, 4.84752, 7.525017, -0.86606, -4.8331046, 5.7023606
1566316273701, 20.921618, 15.958015, -12.389437, 5.4366946, 7.3371325, -0.6402239, -4.632835, 5.6533585
1566316273712, 21.912367, 17.565075, -11.908037, 5.4606447, 7.0237646, -0.4293016, -4.3473444, 5.4999604
1566316273712, 22.665436, 18.815275, -11.488909, 5.264253, 6.605598, -0.2130529, -4.0107207, 5.244297
1566316273723, 23.384989, 19.866688, -10.902129, 5.7719975, 6.109832, 0.039414786, -3.6261601, 4.9172606
1566316273724, 24.208961, 20.937262, -10.3512745, 6.368357, 5.5796175, 0.31957933, -3.246926, 4.5263085
1566316273734, 24.928463, 21.655767, -9.970467, 7.2832546, 5.041985, 0.60293967, -2.876214, 4.0970073
1566316273734, 25.377546, 22.192251, -9.115445, 8.272398, 4.4912486, 0.922519, -2.4841967, 3.6261601
1566316273743, 25.174, 22.556295, -8.746612, 6.959927, 3.9506202, 1.2271847, -2.0847225, 3.1233554
1566316273744, 25.69161, 22.781427, -8.334668, 8.461604, 3.4801598, 1.555286, -1.6841831, 2.6184201
1566316273754, 25.15101, 22.565874, -8.258028, 7.4269557, 3.1157386, 1.8503643, -1.3496901, 2.1124194
1566316273755, 24.71722, 22.132376, -8.2197075, 7.316785, 2.8938704, 2.143312, -1.0684602, 1.6245283
1566316273764, 23.783371, 21.20311, -8.222102, 6.962322, 2.7879078, 2.3840618, -0.8202536, 1.1899004
1566316273764, 22.157307, 20.031944, -8.210127, 4.718189, 2.7533412, 2.5555694, -0.6348976, 0.8042747
1566316273774, 21.124449, 18.824854, -8.169412, 5.012776, 2.743602, 2.6642263, -0.44315, 0.4825648
1566316273775, 19.443026, 17.438137, -8.370594, 1.9687061, 2.735266, 2.706837, -0.33662358, 0.2034655
1566316273784, 18.402462, 16.190332, -8.384964, 2.4932153, 2.748609, 2.7398603, -0.21837921, -0.018109497
1566316273785, 16.980978, 14.750926, -8.408914, 0.23231691, 2.7224083, 2.7121632, -0.15126756, -0.18109496
1566316273794, 16.14046, 13.687537, -8.54543, 0.37601808, 2.6925375, 2.6759443, -0.09374327, -0.28336033
1566316273794, 15.081565, 12.360697, -8.629255, -0.45026368, 2.6177247, 2.5960495, -0.020240024, -0.3355583
1566316273805, 14.078557, 11.024276, -8.5598, -1.8441651, 2.5320735, 2.5076325, 0.033023197, -0.34940675
1566316273805, 13.422277, 10.34888, -8.454419, -1.2573853, 2.364254, 2.3297334, 0.05752428, -0.39840892
1566316273814, 14.974099, 11.084151, -8.914263, -4.679868, 2.1995058, 2.159291, 0.1470065, -0.3920173
1566316273815, 12.632487, 9.431587, -8.073611, -2.3327491, 2.0539587, 2.0080235, 0.24181503, -0.35792887
1566316273824, 11.742653, 8.090376, -7.6281376, -3.774551, 1.8769431, 1.8333201, 0.3174488, -0.24714136
1566316273825, 10.444461, 7.089258, -7.0916533, -2.9219239, 1.7170404, 1.6628778, 0.41438788, -0.10652645
1566316273833, 10.008143, 6.339617, -6.9000516, -3.515889, 1.5641652, 1.474326, 0.51771855, 0.070307456
1566316273834, 9.953311, 5.9947343, -6.943162, -3.8631666, 1.4526997, 1.2815131, 0.6306366, 0.26525086
1566316273846, 10.034413, 5.9396486, -7.0102224, -4.033213, 1.4046925, 1.0737866, 0.7861652, 0.4495416
1566316273846, 10.378221, 6.327642, -7.192244, -3.9924977, 1.3827236, 0.8543421, 0.9171927, 0.5837649
1566316273855, 10.456274, 6.5360084, -7.316785, -3.6164796, 1.4162177, 0.680704, 1.0237192, 0.7030745
1566316273856, 9.976298, 6.473738, -7.1371584, -2.5842261, 1.4700971, 0.5486112, 1.0791129, 0.8341021
1566316273865, 9.564299, 6.2869267, -6.933582, -1.9687061, 1.5275569, 0.4495416, 1.1046792, 0.95447695
1566316273865, 9.142016, 6.1815457, -6.583909, -1.4202466, 1.5706573, 0.37710363, 1.091896, 1.0641992
1566316273875, 8.992043, 6.1863356, -6.480923, -0.76401126, 1.6084781, 0.3153183, 1.0663297, 1.1622036
1566316273876, 9.013454, 6.3132715, -6.4186525, -0.43110353, 1.6284529, 0.2908172, 1.0002834, 1.2516857
1566316273885, 9.028052, 6.4928985, -6.2725563, -0.05508545, 1.6472743, 0.27377295, 0.93636745, 1.3273195
1566316273886, 9.26107, 6.835386, -6.2438164, 0.244292, 1.6513458, 0.26205507, 0.86392945, 1.3827133
1566316273895, 9.508593, 7.1611085, -6.248606, 0.2945874, 1.6451342, 0.257794, 0.80107886, 1.4136059
1566316273896, 9.734609, 7.4676714, -6.2342362, 0.36164796, 1.6404079, 0.25566345, 0.74248934, 1.4402375
1566316273906, 9.884752, 7.6161623, -6.2893214, 0.38320315, 1.624794, 0.25992453, 0.67218184, 1.4562165
1566316273906, 9.928989, 7.822134, -6.1073003, 0.3161426, 1.5870972, 0.2396845, 0.60720074, 1.4466292
1566316273916, 9.972655, 7.9897857, -5.961204, 0.28500733, 1.5616432, 0.24820662, 0.5390238, 1.4444987
1566316273917, 10.020697, 8.159832, -5.8055277, 0.35685793, 1.5121676, 0.23755397, 0.45912898, 1.4210628
1566316273926, 10.214463, 8.418494, -5.774392, 0.34727785, 1.4467753, 0.24074976, 0.36751625, 1.3784522
1566316273928, 10.32018, 8.679551, -5.5732107, 0.33290774, 1.3995227, 0.25353295, 0.29507825, 1.3443637
1566316273935, 10.389762, 8.816068, -5.49178, 0.25387207, 1.3439656, 0.24074976, 0.2130529, 1.3049489
1566316273936, 10.41676, 8.816068, -5.48699, 0.82388675, 1.3084092, 0.21837921, 0.1736381, 1.2783173
1566316273945, 10.456053, 8.808882, -5.5708156, -0.83586186, 1.2860866, 0.18855181, 0.12996227, 1.2655342
1566316273946, 10.44624, 8.871153, -5.4342995, 0.94603276, 1.2807359, 0.16724652, 0.1555286, 1.2602079
1566316273957, 10.587666, 8.947793, -5.5564456, -1.0777588, 1.2646022, 0.12463594, 0.16618125, 1.2474247
1566316273957, 10.612437, 9.06994, -5.48699, 0.5029541, 1.2556888, 0.094808534, 0.23222765, 1.2303804
1566316273967, 10.540064, 8.931028, -5.5468655, -0.7496411, 1.2509916, 0.024501082, 0.30786142, 1.212271
1566316273967, 10.659203, 9.14179, -5.479805, -0.1341211, 1.2370968, -0.029827405, 0.37603834, 1.1781825
1566316273975, 10.667502, 9.216036, -5.369634, 0.16525635, 1.2373848, -0.083090626, 0.46658584, 1.1430287
1566316273976, 10.75909, 9.280701, -5.3792143, -0.8310718, 1.2176071, -0.13528858, 0.51026165, 1.0972224
1566316273987, 10.749525, 9.383687, -5.1876125, 0.7664063, 1.2270242, -0.18855181, 0.5944176, 1.0567423
1566316273987, 10.716527, 9.249566, -5.3121533, -1.0346485, 1.1997914, -0.25885928, 0.62531024, 0.99069595
1566316273997, 10.938199, 9.606423, -5.1828227, 0.7065308, 1.1909204, -0.3110572, 0.6743124, 0.9310411
1566316273997, 10.918136, 9.580078, -5.2019825, -0.60594, 1.1634648, -0.36964676, 0.6860303, 0.86392945
1566316274007, 11.030595, 9.740545, -5.1660576, 0.3281177, 1.155016, -0.41758367, 0.7052051, 0.813862
1566316274007, 10.986064, 9.639954, -5.2666483, 0.16525635, 1.1400982, -0.4676511, 0.71798825, 0.7520767
1566316274017, 11.185431, 9.7621, -5.4582496, -0.15088624, 1.1150022, -0.49002165, 0.72970617, 0.6860303
1566316274018, 11.3905115, 9.867481, -5.5636306, 1.1927198, 1.1018044, -0.50600064, 0.7616641, 0.6146576
1566316274027, 11.526787, 10.015972, -5.704937, -0.028740235, 1.0495833, -0.5070659, 0.75633776, 0.5219796
1566316274028, 11.660924, 10.071057, -5.513335, 2.0381618, 1.0184313, -0.46019423, 0.777643, 0.46978164
1566316274037, 11.425894, 9.924961, -5.630691, 0.5843848, 0.9537711, -0.41545314, 0.77231675, 0.3749731
1566316274038, 11.883769, 10.289004, -5.7719975, 1.4298267, 0.86673063, -0.3834952, 0.73290193, 0.25885928
1566316274047, 12.209095, 10.516531, -5.968389, 1.6860938, 0.7903953, -0.3270362, 0.7073356, 0.13209279
1566316274048, 12.41911, 10.657837, -6.128855, 1.7555494, 0.72606117, -0.27164245, 0.67324716, 0.010652645
1566316274056, 12.297132, 10.473421, -6.215076, 1.7028589, 0.6869651, -0.22050974, 0.6423545, -0.10333065
1566316274057, 12.16351, 10.310559, -6.2270513, 1.6932789, 0.65864104, -0.17470337, 0.5997439, -0.20879184
1566316274068, 11.836699, 9.934542, -6.1815457, 1.7890797, 0.6273051, -0.11611383, 0.5400891, -0.2972088
1566316274069, 11.583565, 9.671089, -6.1312504, 1.7483643, 0.6181435, -0.066046394, 0.47510794, -0.3898868
1566316274078, 11.474894, 9.532178, -6.1552005, 1.710044, 0.610575, -0.018109497, 0.39840892, -0.46232477
1566316274079, 11.330555, 9.364527, -6.1384354, 1.7339942, 0.6337285, 0.029827405, 0.32490566, -0.5432849
1566316274088, 11.404025, 9.273516, -6.4138627, 1.707649, 0.6635717, 0.07989483, 0.2396845, -0.6135923
1566316274089, 11.335795, 9.182506, -6.4833183, 1.465752, 0.713798, 0.10439592, 0.16724652, -0.6860303
1566316274098, 11.248098, 9.024434, -6.593489, 1.2669654, 0.75968295, 0.128897, 0.08735169, -0.7435546
1566316274098, 11.143466, 8.880733, -6.6581545, 0.98914313, 0.8121326, 0.13741912, 0.025566347, -0.8000136
1566316274107, 11.068082, 8.777747, -6.706055, 0.6945557, 0.8502853, 0.13315806, -0.049002163, -0.8383631
1566316274108, 11.072335, 8.746612, -6.7755103, 0.43110353, 0.8877412, 0.12463594, -0.11504856, -0.87138635
1566316274118, 11.103287, 8.729847, -6.856941, 0.23471193, 0.9305864, 0.10759171, -0.15765914, -0.9108011
1566316274119, 11.105019, 8.634046, -6.983877, -0.011975098, 0.951816, 0.08948222, -0.21198763, -0.9235843
1566316274128, 11.164461, 8.643626, -7.065308, -0.119750984, 0.9653747, 0.06924219, -0.25353295, -0.9289106
1566316274129, 11.275212, 8.641231, -7.2425394, -0.07185059, 0.9988665, 0.058589544, -0.3089267, -0.94808537
1566316274139, 11.369497, 8.598121, -7.438931, 0.009580079, 1.0318152, 0.043675844, -0.3536678, -0.9683254
1566316274140, 11.51124, 8.634046, -7.6113725, 0.17004639, 1.0589237, 0.043675844, -0.4165184, -0.97258645
1566316274149, 11.569636, 8.689131, -7.6353226, 0.23950197, 1.1132554, 0.060720075, -0.48043427, -1.0024139
1566316274150, 11.686028, 8.698711, -7.798184, 0.28979737, 1.1620824, 0.068176925, -0.5496765, -1.0215886
1566316274159, 11.632655, 8.612491, -7.812554, 0.3281177, 1.2223319, 0.08628642, -0.6263755, -1.0460896
1566316274160, 11.636494, 8.677156, -7.7454934, 0.34967285, 1.2835146, 0.10013486, -0.7073356, -1.0663297
1566316274169, 11.69592, 8.684341, -7.829319, 0.2802173, 1.3478243, 0.12250541, -0.777643, -1.0940266
1566316274170, 11.980563, 8.823253, -8.095166, 0.3903882, 1.4048532, 0.128897, -0.8330368, -1.123854
1566316274179, 12.258472, 8.998089, -8.320298, 0.2778223, 1.4594967, 0.14168017, -0.87564737, -1.1590078
1566316274180, 12.316096, 8.983719, -8.423284, 0.16525635, 1.520931, 0.13528858, -0.922519, -1.2016183
1566316274189, 12.378644, 9.012459, -8.48316, 0.20597169, 1.5729115, 0.15020229, -0.9683254, -1.2303804
1566316274189, 12.474652, 9.012459, -8.624466, 0.10538086, 1.620144, 0.15126756, -0.99069595, -1.2729911
1566316274199, 12.433125, 9.0891, -8.480764, 0.21794678, 1.6724437, 0.14913702, -1.0162623, -1.3198626
1566316274199, 12.464952, 9.081915, -8.53585, 0.1820215, 1.7074252, 0.14487597, -1.0301107, -1.3539511
1566316274210, 12.553914, 9.15137, -8.59333, 0.08861572, 1.7391176, 0.14274544, -1.0279802, -1.3954965
1566316274210, 12.604946, 9.115445, -8.705896, 0.026345216, 1.7844021, 0.13315806, -1.0450244, -1.4402375
1566316274220, 12.786813, 9.259146, -8.818462, -0.07424561, 1.8020138, 0.11717909, -1.0279802, -1.4753913
1566316274221, 12.943557, 9.316627, -8.981323, -0.2682422, 1.8317821, 0.07243799, -1.0066749, -1.5286545
1566316274230, 12.995446, 9.323812, -9.041199, -0.4526587, 1.834262, 0.040480047, -0.96299905, -1.5606124
1566316274231, 13.099191, 9.254355, -9.22801, -0.8885523, 1.8363383, -0.017044231, -0.8990832, -1.6010925
1566316274236, 13.234389, 9.3309965, -9.321417, -1.092129, 1.8208164, -0.07243799, -0.8149273, -1.6266588
1566316274237, 13.288589, 9.261541, -9.4435625, -1.2765454, 1.7944897, -0.1470065, -0.7073356, -1.6426378
1566316274246, 13.510382, 9.3309965, -9.663904, -1.4394068, 1.7808487, -0.22370553, -0.58483016, -1.6671388
1566316274247, 13.546587, 9.153765, -9.862691, -1.5639478, 1.7597895, -0.28655612, -0.45486793, -1.675661
1566316274257, 13.598914, 9.129815, -9.965676, -1.5040723, 1.7682507, -0.35153726, -0.34088463, -1.6990968
1566316274257, 13.587367, 9.074729, -10.025552, -1.3244458, 1.7752233, -0.41758367, -0.24714136, -1.707619
1566316274267, 13.461857, 8.828042, -10.078242, -1.3100758, 1.7696983, -0.4708469, -0.15233281, -1.6990968
1566316274267, 13.464581, 8.746612, -10.138118, -1.4178516, 1.7623049, -0.52411014, -0.041545313, -1.6820526
1566316274276, 13.573809, 8.595725, -10.41115, -1.4034815, 1.7517331, -0.5763081, 0.05539375, -1.6532904
1566316274277, 13.445798, 8.349038, -10.459051, -1.3004956, 1.7483081, -0.6125271, 0.13422333, -1.6319852
1566316274287, 13.359481, 8.076006, -10.559642, -1.3220508, 1.7524705, -0.67005134, 0.18642128, -1.6085494
1566316274287, 13.408443, 8.200547, -10.533297, -1.2597803, 1.745815, -0.71798825, 0.23116238, -1.5744609
1566316274296, 13.233219, 8.049661, -10.425521, -1.2765454, 1.735495, -0.7520767, 0.25885928, -1.5425029
1566316274297, 13.369348, 8.188572, -10.497371, -1.22146, 1.7434331, -0.80107886, 0.27803403, -1.5233282
1566316274307, 13.480746, 8.174202, -10.643467, -1.2765454, 1.74903, -0.84688526, 0.29294774, -1.5020229
1566316274307, 13.626708, 8.296348, -10.741663, -1.214275, 1.7669919, -0.89375687, 0.30999196, -1.4924355
1566316274317, 13.6222, 8.255632, -10.7871685, -1.0226734, 1.7775716, -0.922519, 0.30146983, -1.4892397
1566316274318, 13.606395, 8.262817, -10.772799, -0.8981324, 1.7821743, -0.95447695, 0.29188246, -1.4764565
1566316274327, 13.497809, 8.229287, -10.665023, -0.852627, 1.7974472, -0.9800433, 0.26738137, -1.4828482
1566316274327, 13.355675, 8.167017, -10.550061, -0.60833496, 1.8195585, -1.0024139, 0.25033715, -1.4977618
1566316274340, 13.194023, 8.073611, -10.43031, -0.3281177, 1.8056726, -1.0034791, 0.22690132, -1.4839134
1566316274340, 12.988112, 7.8915896, -10.31535, -0.086220704, 1.7976605, -0.99921805, 0.24394555, -1.474326
1566316274347, 12.715317, 6.8521514, -10.703342, -0.40715334, 1.7646501, -0.9981528, 0.2545982, -1.4327807
1566316274348, 12.574857, 7.2497244, -10.27224, 0.22273682, 1.731073, -0.98750013, 0.24927188, -1.3997575
1566316274357, 12.442563, 7.4652762, -9.936936, 0.58677983, 1.7088253, -0.9470201, 0.22796659, -1.4040185
1566316274358, 12.154769, 7.4676714, -9.544153, 0.9388477, 1.6749054, -0.8852348, 0.18002969, -1.4104102
1566316274367, 12.279898, 7.647298, -9.481883, 1.5519727, 1.6308256, -0.78723043, 0.10652645, -1.4242586
1566316274368, 12.351113, 7.6496925, -9.489068, 1.9974464, 1.5971153, -0.6945524, -0.014913702, -1.438107
1566316274377, 12.292865, 7.5874224, -9.469908, 1.9663111, 1.584752, -0.5944176, -0.13741912, -1.4626081
1566316274378, 11.901232, 7.247329, -9.251961, 1.8753004, 1.5558001, -0.52624065, -0.23222765, -1.4455639
1566316274388, 11.45745, 6.813831, -9.060359, 1.6597486, 1.5300672, -0.46658584, -0.28229508, -1.4295849
1566316274388, 11.095167, 6.5216384, -8.873548, 1.3531861, 1.4951589, -0.4079963, -0.30786142, -1.4050838
1566316274398, 10.616095, 6.241421, -8.485555, 1.3196558, 1.4408413, -0.35473305, -0.3110572, -1.361408
1566316274398, 10.207616, 6.0282645, -8.121511, 1.3771362, 1.401864, -0.30466563, -0.31957933, -1.3305153
1566316274408, 9.87195, 5.9180937, -7.7430983, 1.5735279, 1.3461652, -0.24820662, -0.3206446, -1.2836437
1566316274409, 9.737347, 5.934859, -7.5179667, 1.7531544, 1.2962977, -0.17044231, -0.3334278, -1.2410331
1566316274418, 9.472267, 5.863008, -7.1874537, 1.9208057, 1.2685188, -0.09267801, -0.3472762, -1.216532
1566316274419, 9.340953, 5.8893533, -6.976692, 1.9734962, 1.260586, -0.008522116, -0.37071204, -1.2048141
1566316274428, 9.34196, 6.11209, -6.7803006, 1.9854712, 1.2360836, 0.0777643, -0.39840892, -1.1675298
1566316274429, 9.3303, 6.12646, -6.74198, 2.0166066, 1.2289172, 0.15126756, -0.4016047, -1.1515509
1566316274439, 9.476762, 6.3803325, -6.792276, 1.7220191, 1.2349586, 0.23329292, -0.386691, -1.1494204
1566316274439, 9.702289, 6.6413894, -6.9048414, 1.5328126, 1.2449938, 0.28229508, -0.36325517, -1.1568772
1566316274449, 9.895463, 6.9144216, -6.945557, 1.3675562, 1.2651737, 0.330232, -0.32170987, -1.1781825
1566316274449, 10.1102915, 7.2425394, -6.964717, 1.1208692, 1.3083949, 0.3834952, -0.28229508, -1.2186625
1566316274461, 10.253484, 7.3718705, -7.067703, 0.9148975, 1.3372141, 0.4165184, -0.23648871, -1.24849
1566316274462, 10.407283, 7.5227566, -7.158714, 0.68737066, 1.388787, 0.44208476, -0.18961707, -1.3028184
1566316274469, 10.719282, 7.7646537, -7.3814507, 0.35685793, 1.4241455, 0.45912898, -0.1257012, -1.3422332
1566316274469, 10.932333, 7.879615, -7.577842, 0.06227051, 1.4593151, 0.44847634, -0.04261058, -1.3880396
1566316274483, 11.218427, 7.9706254, -7.8868, -0.34727785, 1.5098295, 0.45593318, 0.05965481, -1.438107
1566316274484, 11.475339, 8.123906, -8.087981, -0.51971924, 1.5537158, 0.41864893, 0.1917476, -1.4839134
1566316274493, 11.819489, 8.286768, -8.351434, -1.1328443, 1.6200963, 0.36112466, 0.35792887, -1.5382419
1566316274493, 10.8793955, 7.3527102, -7.917935, -1.2669654, 1.6817899, 0.3270362, 0.5091964, -1.5691346
1566316274505, 11.464654, 7.793394, -8.351434, -0.977168, 1.7387936, 0.27696875, 0.60507023, -1.6064188
1566316274505, 11.630263, 7.893985, -8.461604, -1.1615845, 1.8044413, 0.23648871, 0.67537767, -1.6564863
1566316274512, 11.705042, 7.8484793, -8.590936, -1.2669654, 1.8704181, 0.18642128, 0.72011876, -1.716141
1566316274512, 11.591771, 7.647298, -8.57417, -1.5399976, 1.931812, 0.12144015, 0.7755125, -1.7651432
1566316274523, 11.534187, 7.462881, -8.636441, -1.6597486, 1.9834266, 0.05006743, 0.8309063, -1.8002969
1566316274524, 11.284156, 7.103628, -8.56938, -1.8537452, 2.032595, -0.027696876, 0.8926916, -1.8258632
1566316274533, 10.877774, 6.6413894, -8.413704, -1.8513502, 2.0658004, -0.1107875, 0.9289106, -1.8418423
1566316274534, 10.402501, 6.1552005, -8.167017, -1.9040406, 2.0864596, -0.18216023, 0.9672601, -1.8397117
1566316274542, 9.869882, 5.5947657, -7.937095, -1.7651294, 2.0883188, -0.25885928, 0.9917612, -1.8194717
1566316274542, 9.500088, 5.2905984, -7.7430983, -1.5184424, 2.0645664, -0.31638354, 0.99495703, -1.7811222
1566316274550, 9.032147, 4.87626, -7.5035963, -1.223855, 2.04197, -0.36218992, 0.98750013, -1.7502295
1566316274550, 8.59571, 4.4906616, -7.2616997, -0.99393314, 1.9819657, -0.4133226, 0.9502159, -1.6895094
1566316274562, 8.1131935, 3.9661524, -7.0437527, -0.69216067, 1.9166056, -0.43356264, 0.8852348, -1.6437031
1566316274563, 7.7352586, 3.6931202, -6.7803006, -0.47181886, 1.8296499, -0.44421527, 0.82344943, -1.5723304
1566316274574, 7.3245397, 3.3650026, -6.502478, -0.2083667, 1.7420651, -0.4527374, 0.74248934, -1.5094798
1566316274574, 6.9769797, 3.03928, -6.2797413, -0.07664063, 1.6333092, -0.44421527, 0.664725, -1.4242586
1566316274584, 6.675584, 2.823728, -6.047425, 0.13651612, 1.5250559, -0.44741106, 0.5816344, -1.3369069
1566316274584, 6.48869, 2.6009912, -5.9396486, 0.24189699, 1.4120208, -0.4250405, 0.49641323, -1.2516857
1566316274593, 6.2953415, 2.5027955, -5.7648125, 0.366438, 1.3066262, -0.41545314, 0.4346279, -1.160073
1566316274594, 6.1515164, 2.3566992, -5.6714063, 0.34967285, 1.1974989, -0.40373522, 0.37816888, -1.0620687
1566316274605, 6.0026455, 2.318379, -5.5229154, 0.39278322, 1.1025363, -0.3749731, 0.350472, -0.9757822
1566316274605, 5.881904, 2.2896388, -5.4055595, 0.366438, 1.0170519, -0.35473305, 0.33129725, -0.89375687
1566316274614, 5.779464, 2.2345533, -5.3121533, 0.43589357, 0.93546593, -0.3291667, 0.3121225, -0.8181231
1566316274616, 5.6903634, 2.1603076, -5.237908, 0.52690434, 0.8636575, -0.30360037, 0.30999196, -0.74675035
1566316274621, 5.5151067, 2.0573218, -5.0846267, 0.5748047, 0.7842466, -0.2790993, 0.29933932, -0.6689861
1566316274621, 5.399873, 2.1603076, -4.902605, 0.67539555, 0.7073902, -0.24714136, 0.27057716, -0.60507023
1566316274631, 5.3489323, 1.9950514, -4.91937, 0.6562354, 0.618583, -0.20772657, 0.26525086, -0.5187838
1566316274631, 5.3265696, 2.0860622, -4.8523097, 0.68976563, 0.5341513, -0.1917476, 0.23648871, -0.43888897
1566316274641, 5.3882055, 2.1100123, -4.9145803, 0.65384036, 0.45010796, -0.15446335, 0.221575, -0.36005938
1566316274642, 5.36194, 2.0070264, -4.9385304, 0.57719976, 0.3823053, -0.13848437, 0.20133498, -0.294013
1566316274651, 5.3860993, 2.0860622, -4.9361353, 0.5412744, 0.32003707, -0.12037488, 0.19707392, -0.221575
1566316274652, 5.364295, 2.095642, -4.905, 0.57001466, 0.24349159, -0.0958738, 0.17150758, -0.1438107
1566316274661, 5.267116, 2.0549269, -4.82357, 0.5029541, 0.1734583, -0.07563378, 0.14594123, -0.05539375
1566316274663, 5.3113832, 2.0285816, -4.869075, 0.6227051, 0.12350178, -0.041545313, 0.11504856, 0.017044231
1566316274675, 5.4028025, 2.201023, -4.8906302, 0.65384036, 0.123593636, -0.027696876, 0.07563378, 0.09374327
1566316274676, 5.3827987, 2.2129982, -4.8571, 0.69695073, 0.17514774, 0.008522116, 0.02130529, 0.1736381
1566316274685, 5.512773, 2.4165747, -4.912185, 0.6490503, 0.2408181, 0.024501082, -0.02130529, 0.23861924
1566316274686, 5.579023, 2.5123756, -4.9385304, 0.6514453, 0.3444562, 0.051132694, -0.04474111, 0.33768883
1566316274695, 5.6873255, 2.555486, -5.046306, 0.59156984, 0.42751625, 0.07882957, -0.07563378, 0.4133226
1566316274696, 5.8738923, 2.6512868, -5.1900077, 0.732876, 0.52612203, 0.10759171, -0.0958738, 0.50600064
1566316274705, 6.026517, 2.682422, -5.343289, 0.7568262, 0.60815036, 0.14487597, -0.13848437, 0.57417756
1566316274705, 5.9857907, 2.7901978, -5.240303, 0.76401126, 0.7008995, 0.15126756, -0.18322548, 0.6593987
1566316274714, 6.069532, 2.912344, -5.2738333, 0.7376661, 0.7822328, 0.18109496, -0.2396845, 0.7222493
1566316274714, 6.096338, 3.0704153, -5.225933, 0.65384036, 0.87310106, 0.19600865, -0.29827404, 0.79681784
1566316274723, 6.297609, 3.2644117, -5.350474, 0.613125, 0.94682175, 0.2066613, -0.34408042, 0.85753787
1566316274724, 6.295068, 3.4560134, -5.237908, 0.4981641, 1.0371864, 0.22264028, -0.37603834, 0.9406285
1566316274732, 6.5032864, 3.6045046, -5.4031644, 0.32572266, 1.092885, 0.2247708, -0.38136467, 0.99921805
1566316274732, 6.655726, 3.7434156, -5.49657, 0.2706372, 1.1545669, 0.23116238, -0.3834952, 1.0641992
1566316274742, 6.661816, 3.8248463, -5.4534597, 0.100590825, 1.1977301, 0.23755397, -0.34621096, 1.1217234
1566316274743, 6.8948045, 4.1242237, -5.5253105, 0.0071850587, 1.2468551, 0.24074976, -0.3057309, 1.1845741
1566316274752, 7.065578, 4.267925, -5.630691, -0.050295413, 1.2918961, 0.24181503, -0.26525086, 1.2410331
1566316274753, 7.1197934, 4.397256, -5.599556, 0.023950197, 1.3378432, 0.23861924, -0.23435818, 1.2953615
1566316274765, 7.2204475, 4.567302, -5.592371, 0.0, 1.3852879, 0.25353295, -0.18961707, 1.3486248
1566316274765, 7.346458, 4.8139896, -5.5492606, 0.040715333, 1.4245011, 0.24714136, -0.18855181, 1.3901701
1566316274776, 7.470616, 4.9648757, -5.5803957, -0.13891114, 1.4609934, 0.24074976, -0.17257284, 1.4306501
1566316274777, 7.6803503, 5.1924024, -5.654641, -0.22752686, 1.4912862, 0.2396845, -0.165116, 1.4626081
1566316274784, 7.8877964, 5.3001785, -5.824688, -0.44547364, 1.5143603, 0.21624869, -0.16937704, 1.4892397
1566316274784, 8.083972, 5.43909, -5.9324636, -0.7568262, 1.5439119, 0.2066613, -0.16405073, 1.5211977
1566316274795, 8.4457, 5.824688, -6.06419, -0.7927515, 1.5545982, 0.18216023, -0.1438107, 1.5371766
1566316274796, 8.818075, 6.0306597, -6.373147, -0.87897223, 1.5729076, 0.16618125, -0.11930962, 1.5595472
1566316274803, 9.146546, 6.2510014, -6.6174393, -0.8909473, 1.620116, 0.15233281, -0.14487597, 1.6064188
1566316274804, 9.417551, 5.9635987, -7.220984, -0.9915381, 1.6624428, 0.11611383, -0.099069595, 1.655421
1566316274813, 9.485692, 6.361172, -6.9216065, -1.2669654, 1.6995136, 0.08735169, 0.03195793, 1.6969663
1566316274814, 9.708292, 6.9096317, -6.6533647, -1.4968873, 1.7561513, 0.06711166, 0.23116238, 1.7395768
1566316274822, 10.120036, 7.479646, -6.638994, -1.5471827, 1.8436514, 0.041545313, 0.44101948, 1.7896442
1566316274823, 10.802944, 8.145462, -6.821016, -1.9567311, 1.9410492, -0.0127831735, 0.66152924, 1.824798
1566316274836, 11.537511, 8.701106, -7.062913, -2.7422974, 2.0541666, -0.13528858, 0.8681905, 1.856756
1566316274837, 11.977816, 9.14179, -6.9934573, -3.3147073, 2.1938298, -0.29507825, 1.1057445, 1.8716697
1566316274846, 12.303351, 9.465117, -6.622229, -4.2343946, 2.4152977, -0.5006743, 1.3582122, 1.933455
1566316274847, 12.738464, 10.078242, -6.1887307, -4.7325587, 2.671988, -0.7701862, 1.5883093, 2.005893
1566316274856, 13.343214, 10.870995, -5.942044, -4.9552956, 2.9742506, -1.0578076, 1.8940402, 2.034655
1566316274857, 14.717598, 11.824212, -6.6988697, -5.6498513, 3.3338974, -1.3443637, 2.3180156, 1.9835224
1566316274866, 16.146296, 12.322376, -8.056846, -6.6294146, 3.7144554, -1.6021577, 2.8059065, 1.8322549
1566316274867, 17.5323, 12.545113, -9.951306, -7.1395535, 4.0249896, -1.8887138, 3.1553133, 1.6362462
1566316274876, 18.05421, 12.231365, -11.433824, -6.7539554, 4.1447344, -2.1827269, 3.2011197, 1.4721955
1566316274877, 16.676083, 10.801538, -11.673326, -5.015171, 4.083541, -2.392584, 3.0200248, 1.3528858
1566316274887, 14.130149, 8.641231, -10.98356, -2.0860622, 3.8697388, -2.4831314, 2.6578348, 1.320928
1566316274888, 12.329786, 6.962322, -10.1189575, 1.0753639, 3.530835, -2.420281, 2.1774006, 1.3667343
1566316274898, 11.989848, 6.1312504, -9.522598, 3.9350173, 3.112515, -2.2210765, 1.627724, 1.4508902
1566316274899, 12.581537, 6.0043144, -9.144185, 6.215076, 2.7204206, -1.9451729, 1.0620687, 1.5776566
1566316274907, 13.319921, 6.3899126, -9.074729, 7.3646855, 2.4084578, -1.6160061, 0.54648066, 1.700162
1566316274909, 14.213512, 7.2832546, -9.395662, 7.790999, 2.2240162, -1.2825783, 0.11824436, 1.8130801
1566316274916, 14.803018, 8.207732, -9.989627, 7.209009, 2.14276, -0.9938917, -0.19068234, 1.8887138
1566316274918, 15.073116, 8.983719, -10.521321, 5.982759, 2.101797, -0.75101143, -0.3685815, 1.9281287
1566316274926, 15.176928, 9.75252, -10.803933, 4.3014555, 2.1013112, -0.60080916, -0.43782368, 1.965413
1566316274928, 15.259458, 10.293795, -10.94045, 2.682422, 2.1082811, -0.5411543, -0.41864893, 1.9941751
1566316274938, 15.307317, 10.748848, -10.803933, 1.4322218, 2.1182263, -0.5390238, -0.3089267, 2.0250678
1566316274939, 15.470133, 11.163186, -10.705738, 0.30895755, 2.1304615, -0.5592638, -0.14487597, 2.0506341
1566316274947, 15.612714, 11.421848, -10.636282, -0.40954837, 2.1578112, -0.6317018, 0.09054748, 2.0612867
1566316274949, 15.973007, 11.714041, -10.825489, -0.852627, 2.205354, -0.69135666, 0.34514567, 2.0655477
1566316274957, 15.97291, 11.6876955, -10.859019, -0.7831714, 2.2829375, -0.7595336, 0.59228706, 2.0698087
1566316274958, 15.930971, 11.615846, -10.8925495, -0.46942386, 2.3661242, -0.79042625, 0.81705785, 2.0751352
1566316274966, 15.744605, 11.5895, -10.655442, 0.1939966, 2.426279, -0.8021441, 0.99282646, 2.0634172
1566316274968, 15.461317, 11.493699, -10.30098, 0.9148975, 2.4540563, -0.77231675, 1.0929613, 2.0570257
1566316274977, 15.138833, 11.364368, -9.862691, 1.6621436, 2.4553018, -0.71479243, 1.1302456, 2.0591562
1566316274979, 14.874591, 11.340418, -9.354947, 2.2656887, 2.4228172, -0.64341974, 1.1046792, 2.058091
1566316274987, 14.787377, 11.323653, -9.06994, 2.8596535, 2.35211, -0.55074173, 1.0226538, 2.0453076
1566316274988, 14.778866, 11.433824, -8.851993, 3.0536501, 2.2675288, -0.4527374, 0.91186637, 2.026133
1566316274997, 14.927302, 11.675721, -8.717872, 3.2404616, 2.1618772, -0.36005938, 0.78083885, 1.9835224
1566316274998, 15.339263, 12.17628, -8.765772, 3.1925611, 2.0405865, -0.257794, 0.64555025, 1.9185413
1566316275007, 15.787541, 12.736714, -8.794512, 3.1111305, 1.9010254, -0.17044231, 0.5049353, 1.824798
1566316275009, 16.139652, 13.1438675, -8.919053, 2.8596535, 1.7664038, -0.09374327, 0.3749731, 1.7235979
1566316275017, 16.3684, 13.445641, -8.974138, 2.5698562, 1.6071209, -0.017044231, 0.2514024, 1.587244
1566316275018, 16.503695, 13.613292, -8.986114, 2.5099807, 1.4695264, 0.053263225, 0.13209279, 1.4626081
1566316275030, 16.596947, 13.745018, -8.995694, 2.3686745, 1.324115, 0.11824436, -0.008522116, 1.3187973
1566316275031, 16.477615, 13.733043, -8.789722, 2.3782544, 1.2138911, 0.18961707, -0.13848437, 1.1909657
1566316275036, 16.406267, 13.754598, -8.643626, 2.2944288, 1.1147009, 0.26525086, -0.2790993, 1.0460896
1566316275042, 16.181746, 13.606107, -8.428074, 2.3854396, 1.0597283, 0.3291667, -0.43249738, 0.90973586
1566316275054, 16.054277, 13.505516, -8.322693, 2.4644752, 1.0571744, 0.41864893, -0.59228706, 0.76912093
1566316275057, 16.011604, 13.476775, -8.243657, 2.6057813, 1.1068282, 0.49428272, -0.75101143, 0.64555025
1566316275059, 15.835396, 13.333075, -8.157437, 2.5387208, 1.2011096, 0.57417756, -0.9257148, 0.50600064
1566316275062, 15.757242, 13.227694, -8.198153, 2.4716604, 1.3042352, 0.64768076, -1.067395, 0.37710363
1566316275067, 15.539164, 13.088782, -8.032896, 2.3710694, 1.4335408, 0.71585774, -1.2186625, 0.2396845
1566316275071, 15.238433, 12.822935, -7.8820095, 2.3782544, 1.5570996, 0.78723043, -1.3390374, 0.10865697
1566316275077, 14.851248, 12.475657, -7.7383084, 2.2441335, 1.6815817, 0.83516735, -1.4594123, -0.018109497
1566316275078, 14.486347, 12.228971, -7.510782, 1.9734962, 1.8058057, 0.8873653, -1.567004, -0.13422333
1566316275086, 14.095519, 11.908037, -7.29523, 1.9136207, 1.9065231, 0.9171927, -1.6522251, -0.25246766
1566316275088, 13.499291, 11.438614, -6.9551373, 1.7363893, 1.9903921, 0.9491506, -1.7129452, -0.35579833
1566316275096, 13.061586, 11.033855, -6.7946706, 1.6405884, 2.0607018, 0.9651296, -1.7640779, -0.45060685
1566316275097, 12.506604, 10.552457, -6.5216384, 1.590293, 2.1207757, 0.97897804, -1.8024274, -0.5390238
1566316275106, 12.01484, 10.166859, -6.2510014, 1.3843213, 2.155978, 0.98110855, -1.8194717, -0.6125271
1566316275107, 11.696203, 9.901011, -6.06419, 1.4130616, 2.1953652, 0.99708754, -1.8279938, -0.6956177
1566316275117, 11.23275, 9.510623, -5.7863674, 1.4968873, 2.2418249, 0.99495703, -1.8514296, -0.7797736
1566316275118, 10.900621, 9.285491, -5.479805, 1.6046631, 2.27195, 1.0215886, -1.8461033, -0.8426242
1566316275127, 10.557179, 8.988508, -5.261858, 1.7244141, 2.2979558, 1.0365024, -1.8375812, -0.9108011
1566316275128, 10.222038, 8.708291, -5.079837, 1.6884888, 2.3277202, 1.0599382, -1.8322549, -0.9683254
1566316275137, 9.838814, 8.320298, -4.864285, 1.9782863, 2.3676593, 1.0929613, -1.8333201, -1.0247844
1566316275138, 9.757017, 8.2125225, -4.8427296, 2.074087, 2.41815, 1.1323761, -1.8397117, -1.0865698
1566316275146, 9.4296255, 7.89638, -4.598438, 2.327959, 2.4750524, 1.1867046, -1.8482338, -1.1408982
1566316275147, 9.248702, 7.7311234, -4.4667115, 2.411785, 2.5620701, 1.2538162, -1.8823223, -1.2037488
1566316275157, 9.106347, 7.599397, -4.3541455, 2.4932153, 2.635767, 1.3156016, -1.9132149, -1.2474247
1566316275159, 8.972746, 7.4030056, -4.30385, 2.680027, 2.7249365, 1.3933659, -1.9451729, -1.3038837
1566316275167, 8.826422, 7.30481, -4.191284, 2.6417067, 2.8034296, 1.4658039, -1.9771309, -1.3422332
1566316275169, 8.73269, 7.209009, -4.258345, 2.4812403, 2.879394, 1.5222629, -2.0080235, -1.3933659
1566316275178, 8.58311, 7.082073, -4.2272096, 2.3758595, 2.957565, 1.5947009, -2.026133, -1.4487597
1566316275179, 8.547515, 7.067703, -4.296665, 2.1555176, 3.0133548, 1.6437031, -2.0421119, -1.4860439
1566316275190, 8.465486, 7.046148, -4.2799, 1.9232007, 3.0719492, 1.6937705, -2.0506341, -1.5371766
1566316275191, 8.396236, 6.9862723, -4.390071, 1.5543678, 3.1156034, 1.7204021, -2.049569, -1.5957662
1566316275197, 8.288911, 6.878496, -4.4523416, 1.2525953, 3.1459832, 1.7470337, -2.034655, -1.6447684
1566316275199, 8.326478, 6.969507, -4.4379716, 1.0298585, 3.1716478, 1.7544906, -2.014415, -1.7097495
1566316275208, 8.234787, 6.844966, -4.517007, 0.7448511, 3.167123, 1.7470337, -1.9824572, -1.7459685
1566316275211, 8.222257, 6.847361, -4.5385623, 0.34727785, 3.1667178, 1.7310548, -1.9419771, -1.8056233
1566316275218, 8.191846, 6.758745, -4.6271777, 0.122146, 3.1594663, 1.7012273, -1.9121497, -1.8524948
1566316275219, 8.184664, 6.72761, -4.6583133, -0.16765137, 3.1230628, 1.6586168, -1.861017, -1.881257
1566316275228, 8.175002, 6.631809, -4.754114, -0.4981641, 3.0695834, 1.5947009, -1.7907095, -1.9164108
1566316275229, 8.358243, 6.6749196, -4.9576907, -0.852627, 3.0186613, 1.5243934, -1.7310548, -1.9473034
1566316275241, 8.428812, 6.6557593, -5.0487013, -1.1208692, 2.9486084, 1.4487597, -1.6415725, -1.9750003
1566316275242, 8.498563, 6.567144, -5.2019825, -1.4274317, 2.8830209, 1.3518206, -1.5563514, -2.0154803
1566316275248, 8.558552, 6.574329, -5.2091675, -1.7004639, 2.8029568, 1.2367721, -1.470065, -2.0410466
1566316275248, 8.549242, 6.447393, -5.2977834, -1.8585353, 2.7341294, 1.1291803, -1.3827133, -2.0708742
1566316275257, 8.623498, 6.4066777, -5.384004, -2.0812721, 2.6436827, 0.98430437, -1.2921658, -2.0857878
1566316275259, 8.680194, 6.373147, -5.4510646, -2.2393434, 2.5640476, 0.85753787, -1.1941614, -2.1007016
1566316275268, 8.609756, 6.212681, -5.4678297, -2.3734643, 2.4918883, 0.72437984, -1.103614, -2.1134846
1566316275269, 8.841101, 6.337222, -5.630691, -2.5099807, 2.417683, 0.5699165, -1.010936, -2.1209416
1566316275278, 8.877445, 6.1935205, -5.774392, -2.6656568, 2.3517935, 0.40906155, -0.92038846, -2.1252027
1566316275279, 9.046525, 6.2438164, -5.942044, -2.7470875, 2.2897875, 0.2514024, -0.8117315, -2.126268
1566316275288, 9.142278, 6.2031007, -6.0833497, -2.8452833, 2.245481, 0.101200126, -0.71479243, -2.126268
1566316275289, 9.260141, 6.2581863, -6.200706, -2.8524685, 2.209512, -0.060720075, -0.6199839, -2.1198764
1566316275298, 9.299764, 6.1815457, -6.4162574, -2.6656568, 2.1722853, -0.20026971, -0.51984906, -2.0996363
1566316275299, 9.421475, 6.08814, -6.67971, -2.6608667, 2.1546648, -0.34301516, -0.42290998, -2.0847225
1566316275309, 9.464849, 6.0833497, -6.7946706, -2.5315359, 2.130203, -0.4910869, -0.33662358, -2.0453076
1566316275309, 9.537012, 6.0593996, -6.9383717, -2.4692652, 2.1272416, -0.62317973, -0.2396845, -2.0197413
1566316275319, 9.520081, 5.8893533, -7.096443, -2.3638844, 2.13333, -0.75633776, -0.15339808, -1.9888487
1566316275319, 9.367297, 5.7767873, -7.0437527, -2.1818628, 2.1336548, -0.8863, -0.0628506, -1.9398465
1566316275329, 9.404903, 5.736072, -7.1251836, -2.186653, 2.138363, -1.0066749, 0.002130529, -1.8865833
1566316275329, 9.282416, 5.609136, -7.1251836, -1.9830762, 2.1421676, -1.1174624, 0.07989483, -1.8258632
1566316275340, 9.362607, 5.527705, -7.2976246, -1.961521, 2.1759813, -1.2452941, 0.12463594, -1.780057
1566316275341, 9.421088, 5.5324955, -7.3527102, -2.0213966, 2.202953, -1.3539511, 0.1949434, -1.7267936
1566316275349, 9.508174, 5.5588408, -7.462881, -1.951941, 2.2286077, -1.4871092, 0.23861924, -1.6426378
1566316275350, 9.557193, 5.5061502, -7.573052, -1.9160157, 2.2783797, -1.6074841, 0.28442562, -1.5893745
1566316275361, 9.726916, 5.5540504, -7.7478886, -1.9327809, 2.3205707, -1.7299895, 0.3174488, -1.5137408
1566316275362, 10.028317, 5.7839723, -7.9730206, -1.8824854, 2.3781762, -1.8524948, 0.3536678, -1.4487597
1566316275375, 10.398288, 5.989944, -8.289163, -1.8800904, 2.450164, -1.9781961, 0.40053943, -1.3891048
1566316275377, 10.758175, 6.212681, -8.6077, -1.7459693, 2.5231833, -2.1007016, 0.4346279, -1.3283848
1566316275379, 11.176283, 6.4042826, -8.993299, -1.7363893, 2.5946007, -2.2082932, 0.47617322, -1.2761868
1566316275381, 11.522196, 6.6821046, -9.244776, -1.6262183, 2.6594195, -2.3148196, 0.5123922, -1.2048141
1566316275391, 11.828734, 6.821016, -9.568104, -1.3579761, 2.7366323, -2.4192157, 0.5550028, -1.1526161
1566316275392, 12.024354, 6.8737063, -9.783655, -1.2717555, 2.7974494, -2.509763, 0.59228706, -1.0844392
1566316275401, 12.051929, 6.8976564, -9.831555, -1.0059083, 2.8648922, -2.6035063, 0.6466155, -1.0056096
1566316275402, 12.207511, 6.9048414, -10.032737, -0.8310718, 2.914759, -2.6738138, 0.7094661, -0.91825795
1566316275410, 12.280868, 6.7491655, -10.248289, -0.49097902, 2.9754615, -2.7505128, 0.753142, -0.8490158
1566316275411, 12.254454, 6.832991, -10.169253, -0.26105714, 3.0272756, -2.8165593, 0.79681784, -0.77231675
1566316275420, 12.191875, 6.71324, -10.176438, 0.119750984, 3.0594573, -2.863431, 0.8309063, -0.6860303
1566316275421, 12.202537, 6.662945, -10.214759, 0.40715334, 3.0804417, -2.8975194, 0.86179894, -0.59228706
1566316275430, 12.1464, 6.5120583, -10.224339, 0.76880133, 3.0790951, -2.908172, 0.88203895, -0.49534798
1566316275431, 12.038923, 6.3923073, -10.106983, 1.3867164, 3.061251, -2.9060414, 0.8745821, -0.4016047
1566316275440, 12.015478, 6.342012, -10.049502, 1.7771046, 3.0216925, -2.8783445, 0.87138635, -0.294013
1566316275441, 11.946861, 6.3012967, -9.8938265, 2.2656887, 2.9524527, -2.8186898, 0.8564726, -0.19600865
1566316275450, 12.019796, 6.2965064, -9.833951, 2.8500733, 2.8709614, -2.7494476, 0.8213189, -0.09161274
1566316275451, 12.264984, 6.449788, -9.912986, 3.2500417, 2.774803, -2.6642263, 0.7755125, 0.0031957934
1566316275461, 12.542377, 6.6988697, -9.944121, 3.6811452, 2.6454105, -2.538525, 0.737163, 0.10333065
1566316275461, 12.89409, 6.9096317, -10.071057, 4.133804, 2.4943447, -2.3861923, 0.7041398, 0.17896444
1566316275472, 13.059799, 7.0509377, -10.051897, 4.4499464, 2.3344953, -2.2200112, 0.67963874, 0.24394555
1566316275473, 13.053754, 7.0269876, -9.903406, 4.790039, 2.162634, -2.038916, 0.65194184, 0.30786142
1566316275481, 12.86577, 6.969507, -9.503438, 5.1612673, 1.9545037, -1.8194717, 0.6061355, 0.37710363
1566316275482, 12.685353, 6.854546, -9.08431, 5.604346, 1.7515093, -1.6053536, 0.551807, 0.4314321
1566316275491, 12.5830555, 6.844966, -8.787327, 5.853428, 1.5366588, -1.3699301, 0.50173956, 0.4825648
1566316275492, 12.547803, 6.935977, -8.480764, 6.11688, 1.2996694, -1.1110709, 0.42290998, 0.5251754
1566316275501, 12.636406, 7.094048, -8.341853, 6.3060865, 1.0758797, -0.8607337, 0.32597092, 0.5571333
1566316275503, 12.790461, 7.316785, -8.344249, 6.358777, 0.86952794, -0.5901565, 0.24394555, 0.5901565
1566316275511, 12.944623, 7.5131764, -8.339458, 6.447393, 0.6849203, -0.31638354, 0.13954964, 0.59122175
1566316275513, 13.000048, 7.7167535, -8.305928, 6.361172, 0.58460605, -0.05006743, 0.046871636, 0.58056915
1566316275522, 12.900001, 7.7167535, -8.329878, 6.1216702, 0.6305592, 0.21411815, -0.03089267, 0.59228706
1566316275523, 12.719934, 7.6161623, -8.246053, 5.982759, 0.76206326, 0.46871635, -0.101200126, 0.59228706
1566316275532, 12.130283, 7.3311553, -7.8987746, 5.5684204, 0.94405276, 0.7073356, -0.20026971, 0.59228706
1566316275534, 11.682981, 7.182664, -7.6281376, 5.1684523, 1.1374276, 0.9171927, -0.30253512, 0.60080916
1566316275542, 11.147672, 6.8737063, -7.3646855, 4.773274, 1.3343291, 1.1132014, -0.40906155, 0.6114618
1566316275543, 10.829367, 6.8808913, -7.1611085, 4.3182206, 1.5206679, 1.2868395, -0.5113269, 0.628506
1566316275554, 10.618969, 6.912027, -7.1395535, 3.7434156, 1.6790423, 1.4274544, -0.6040049, 0.64555025
1566316275556, 10.497045, 6.7946706, -7.28565, 3.307522, 1.8386949, 1.5723304, -0.69135666, 0.6562029
1566316275562, 10.702838, 7.1251836, -7.431746, 2.924319, 1.9599783, 1.6884441, -0.74461985, 0.660464
1566316275563, 10.704883, 7.230564, -7.5179667, 2.4069948, 2.0701501, 1.7928401, -0.8021441, 0.6540724
1566316275573, 10.89148, 7.443721, -7.683223, 2.0453467, 2.1511934, 1.8759307, -0.8309063, 0.6466155
1566316275574, 10.977923, 7.5155716, -7.838899, 1.6070582, 2.218458, 1.9409119, -0.8564726, 0.6487461
1566316275583, 11.024218, 7.6137676, -7.8748245, 1.2454102, 2.288727, 2.0122845, -0.8724516, 0.6540724
1566316275586, 11.1426735, 7.6353226, -8.066426, 0.8909473, 2.3510063, 2.0762005, -0.8873653, 0.65513766
1566316275593, 11.396363, 7.7646537, -8.3250885, 0.5292993, 2.3773224, 2.102832, -0.8852348, 0.6679208
1566316275595, 11.468694, 7.7550735, -8.447234, 0.18441652, 2.3954217, 2.122007, -0.8809737, 0.6775082
1566316275605, 11.53491, 7.805369, -8.490345, -0.21076173, 2.4007282, 2.126268, -0.87351686, 0.6924219
1566316275606, 11.698965, 7.8748245, -8.62207, -0.7161109, 2.3767557, 2.107093, -0.84368944, 0.7052051
1566316275613, 11.756576, 7.817344, -8.696317, -1.2166699, 2.3421378, 2.0708742, -0.82557994, 0.71798825
1566316275614, 11.838771, 7.917935, -8.634046, -1.707649, 2.2778358, 2.010154, -0.78936094, 0.72437984
1566316275623, 11.657179, 7.8269243, -8.380174, -2.0980372, 2.185678, 1.9238676, -0.7275756, 0.7392935
1566316275624, 11.606044, 7.7694435, -8.262817, -2.4620802, 2.065682, 1.8109496, -0.660464, 0.74248934
1566316275634, 11.439232, 7.7574687, -7.8820095, -2.924319, 1.9307474, 1.6831179, -0.58483016, 0.7435546
1566316275636, 11.306156, 7.695198, -7.592212, -3.3123121, 1.7776266, 1.5403724, -0.4889564, 0.74035877
1566316275643, 11.103974, 7.592212, -7.2664895, -3.5853443, 1.6178352, 1.381648, -0.39840892, 0.7414241
1566316275644, 10.835243, 7.4676714, -6.9216065, -3.7050953, 1.4323878, 1.1984226, -0.29614353, 0.72651035
1566316275655, 10.518568, 7.2832546, -6.557564, -3.8200562, 1.2702044, 1.0226538, -0.18322548, 0.7307714
1566316275658, 10.1309185, 7.072493, -6.1408305, -3.8607717, 1.1159279, 0.8426242, -0.066046394, 0.7286409
1566316275663, 9.523482, 6.638994, -5.6833816, -3.784131, 1.0004631, 0.67537767, 0.054328486, 0.73609775
1566316275666, 8.980869, 6.4018874, -5.225933, -3.515889, 0.9124144, 0.5006743, 0.1555286, 0.74675035
1566316275675, 8.489089, 6.080955, -4.9552956, -3.2452517, 0.8877495, 0.3568636, 0.25992453, 0.7701862
1566316275678, 7.9353433, 5.872588, -4.524192, -2.8309133, 0.87412655, 0.22264028, 0.34834146, 0.7701862
1566316275690, 7.6855073, 5.8198977, -4.366121, -2.4764502, 0.9059922, 0.10333065, 0.43249738, 0.78936094
1566316275691, 7.4318666, 5.7839723, -4.176914, -2.0812721, 0.9475622, 0.020240024, 0.5123922, 0.79681784
1566316275693, 7.270551, 5.8175025, -4.064348, -1.5807129, 0.9818399, -0.041545313, 0.5795039, 0.7914915
1566316275694, 7.1078234, 5.858218, -3.8392165, -1.2094849, 1.0291942, -0.10546118, 0.65194184, 0.78936094
1566316275705, 7.0485015, 5.807923, -3.8823268, -0.9364527, 1.0586982, -0.13315806, 0.7094661, 0.77444726
1566316275707, 6.9877005, 5.863008, -3.7386258, -0.68976563, 1.0942174, -0.15978967, 0.773382, 0.757403
1566316275713, 6.9349933, 5.8175025, -3.7506008, -0.42870852, 1.1154565, -0.165116, 0.8149273, 0.7435546
1566316275716, 6.915412, 5.877378, -3.642825, -0.09580079, 1.1370255, -0.15446335, 0.86179894, 0.7254451
1566316275724, 6.900554, 5.860613, -3.642825, -0.026345216, 1.1350431, -0.13741912, 0.89375687, 0.6860303
1566316275725, 6.9556346, 6.0306597, -3.4655933, -0.040715333, 1.1339344, -0.111852765, 0.922519, 0.6498113
1566316275736, 6.833334, 5.942044, -3.3721876, 0.122146, 1.1287546, -0.096939065, 0.9438243, 0.6114618
1566316275738, 6.8290396, 5.9372535, -3.3673975, 0.21315674, 1.0930054, -0.07882957, 0.92997587, 0.56885123
1566316275744, 6.719075, 5.872588, -3.2644117, 0.047900394, 1.0759878, -0.068176925, 0.93423694, 0.5294364
1566316275745, 6.5572276, 5.6714063, -3.290757, -0.05748047, 1.0506046, -0.05965481, 0.9257148, 0.49321744
1566316275754, 6.512087, 5.592371, -3.3338673, -0.1341211, 1.0109763, -0.0628506, 0.9012137, 0.45380265
1566316275755, 6.4746027, 5.4462748, -3.4751735, -0.4263135, 0.98028064, -0.058589544, 0.8745821, 0.43888897
1566316275764, 6.439142, 5.364844, -3.539839, -0.3879932, 0.94392955, -0.07563378, 0.8426242, 0.41864893
1566316275766, 6.3084173, 5.108577, -3.6739602, -0.44786867, 0.90651065, -0.082025364, 0.80533993, 0.4079963
1566316275774, 6.4611874, 5.199588, -3.796106, -0.5484595, 0.8917352, -0.0958738, 0.7797736, 0.42184472
1566316275775, 6.4190807, 5.0415163, -3.9326222, -0.5676197, 0.8898396, -0.11930962, 0.7755125, 0.41971418
1566316275786, 6.377852, 4.912185, -4.006868, -0.70174074, 0.89353466, -0.14168017, 0.76592517, 0.43782368
1566316275788, 6.329842, 4.7780643, -4.0835085, -0.7496411, 0.92320824, -0.15978967, 0.7765778, 0.47297743
1566316275794, 6.382002, 4.773274, -4.176914, -0.7065308, 0.95466304, -0.17789917, 0.79042625, 0.5049353
1566316275796, 6.394907, 4.8044095, -4.1721244, -0.63707525, 0.9874157, -0.20240025, 0.8000136, 0.5422196
1566316275805, 6.505599, 4.8115945, -4.3373804, -0.5987549, 1.015253, -0.21092236, 0.80107886, 0.58696073
1566316275808, 6.6708784, 4.91937, -4.471502, -0.55324954, 1.0408566, -0.22370553, 0.79894835, 0.628506
1566316275816, 6.886512, 5.010381, -4.7062135, -0.4143384, 1.0647115, -0.23009712, 0.78936094, 0.6764429
1566316275818, 7.1011105, 5.1636624, -4.854705, -0.4406836, 1.0986415, -0.24927188, 0.8000136, 0.7105314
1566316275825, 7.253749, 5.2882032, -4.9385304, -0.5125342, 1.1197075, -0.26312032, 0.7957525, 0.74248934
1566316275826, 7.3983335, 5.369634, -5.0654664, -0.49337405, 1.1420525, -0.2609898, 0.7914915, 0.78083885
1566316275837, 7.5964723, 5.604346, -5.110972, -0.41912845, 1.1395571, -0.27803403, 0.77125144, 0.7914915
1566316275839, 7.7761555, 5.829478, -5.127737, -0.4382886, 1.1585367, -0.28655612, 0.76059884, 0.82557994
1566316275846, 7.9166245, 5.9947343, -5.1564775, -0.38320315, 1.1384329, -0.28442562, 0.72437984, 0.8309063
1566316275848, 7.9441905, 6.0306597, -5.158872, -0.35685793, 1.1362482, -0.2876214, 0.6956177, 0.8511463
1566316275856, 8.214914, 6.346802, -5.1971927, -0.4382886, 1.138836, -0.3057309, 0.66365975, 0.87351686
1566316275858, 8.361665, 6.368357, -5.4055595, -0.37601808, 1.1396776, -0.30466563, 0.64555025, 0.88843054
1566316275866, 8.676685, 6.6461797, -5.5660257, -0.364043, 1.1455561, -0.30679616, 0.6295713, 0.90654004
1566316275868, 8.826605, 6.67971, -5.7552323, -0.40954837, 1.155487, -0.3270362, 0.6125271, 0.9235843
1566316275876, 9.204321, 7.0054326, -5.958809, -0.36883304, 1.1643983, -0.3291667, 0.60720074, 0.9374327
1566316275878, 9.450763, 7.201824, -6.109695, -0.34967285, 1.1803697, -0.3355583, 0.60293967, 0.9576728
1566316275888, 9.89767, 7.5059915, -6.447393, -0.23471193, 1.1908075, -0.330232, 0.60080916, 0.9736517
1566316275890, 10.064292, 7.5323367, -6.67013, -0.25147706, 1.2063828, -0.32170987, 0.58909124, 1.0024139
1566316275896, 10.438795, 7.805369, -6.9311867, -0.05748047, 1.2256213, -0.31957933, 0.5858955, 1.0279802
1566316275898, 10.720207, 8.097562, -7.0245924, -0.086220704, 1.2430769, -0.30360037, 0.5933523, 1.0492855
1566316275905, 11.120844, 8.351434, -7.34313, -0.07185059, 1.2704153, -0.30466563, 0.60293967, 1.0759171
1566316275907, 11.288246, 8.440049, -7.4916215, -0.2562671, 1.3048837, -0.30999196, 0.62531024, 1.1025487
1566316275917, 11.473214, 8.590936, -7.5946074, -0.3903882, 1.3607217, -0.31318775, 0.67218184, 1.1408982
1566316275919, 11.59791, 8.701106, -7.6592727, -0.37122804, 1.4115924, -0.330232, 0.69668293, 1.1824435
1566316275925, 11.740499, 8.782537, -7.774234, -0.51732427, 1.4631268, -0.33981937, 0.7488809, 1.2101405
1566316275927, 11.870159, 8.907078, -7.822134, -0.61552006, 1.516744, -0.36112466, 0.7819041, 1.24849
1566316275941, 11.959856, 9.043594, -7.807764, -0.5388794, 1.5559477, -0.37603834, 0.8000136, 1.2804478
1566316275942, 12.136932, 9.2328005, -7.8724294, -0.2921924, 1.5856299, -0.37816888, 0.81066626, 1.3092101
1566316275946, 12.217055, 9.486672, -7.695198, -0.2083667, 1.5893121, -0.37710363, 0.7957525, 1.3230585
1566316275949, 12.347083, 9.687855, -7.654483, -0.06945557, 1.5806515, -0.36645097, 0.7797736, 1.325189
1566316275956, 12.425211, 9.869876, -7.5467067, 0.13651612, 1.5496335, -0.34408042, 0.7392935, 1.3177321
1566316275958, 12.592486, 10.116563, -7.4916215, 0.31853762, 1.5058616, -0.32490566, 0.69774824, 1.2942963
1566316275969, 12.806359, 10.36325, -7.5131764, 0.39757326, 1.4622808, -0.30466563, 0.6306366, 1.2836437
1566316275972, 12.9387045, 10.607542, -7.3886356, 0.5460645, 1.3890269, -0.26631612, 0.56885123, 1.2389026
1566316275979, 13.317178, 11.00272, -7.472461, 0.6706055, 1.3096, -0.24394555, 0.49215218, 1.1888351
1566316275980, 13.656363, 11.352393, -7.558682, 0.69695073, 1.2119232, -0.21731395, 0.43249738, 1.1110709
1566316275989, 13.959164, 11.639795, -7.683223, 0.5843848, 1.1269783, -0.20559604, 0.3653857, 1.0460896
1566316275990, 14.378703, 11.948753, -7.975415, 0.60594, 1.0212042, -0.17576863, 0.330232, 0.9502159
1566316276000, 14.710497, 12.281661, -8.080796, 0.51013917, 0.90074646, -0.1470065, 0.2759035, 0.8447547
1566316276001, 14.987161, 12.4684725, -8.308323, 0.3520679, 0.8042873, -0.13741912, 0.26525086, 0.74675035
1566316276010, 15.168424, 12.552298, -8.509504, 0.3305127, 0.71522653, -0.1107875, 0.26205507, 0.6562029
1566316276010, 15.285627, 12.616963, -8.624466, 0.28500733, 0.6381254, -0.09267801, 0.30679616, 0.551807
1566316276020, 15.174226, 12.410992, -8.722662, 0.37362307, 0.5908013, -0.06924219, 0.33981937, 0.47830373
1566316276021, 14.973352, 12.164305, -8.720266, 0.43349856, 0.5460953, -0.04474111, 0.36964676, 0.39947417
1566316276030, 14.457362, 11.6876955, -8.495134, 0.49576905, 0.5073366, -0.025566347, 0.37390783, 0.34194988
1566316276031, 14.085147, 11.352393, -8.310719, 0.6682105, 0.47043097, -0.0031957934, 0.36112466, 0.30146983
1566316276041, 13.723447, 10.9644, -8.229287, 0.62749517, 0.43311355, 0.017044231, 0.3334278, 0.2759035
1566316276042, 13.626849, 10.830278, -8.253238, 0.5292993, 0.43587023, 0.0479369, 0.33662358, 0.2727077
1566316276051, 13.572544, 10.600357, -8.464, 0.45505372, 0.41136727, 0.060720075, 0.3121225, 0.2609898
1566316276052, 13.394917, 10.425521, -8.404124, 0.32093263, 0.39962897, 0.066046394, 0.2972088, 0.25885928
1566316276061, 13.329929, 10.341695, -8.408914, 0.16286133, 0.40563503, 0.068176925, 0.29827404, 0.26631612
1566316276062, 13.09934, 10.099798, -8.341853, 0.016765138, 0.41322652, 0.07243799, 0.29294774, 0.28229508
1566316276073, 12.885033, 10.059082, -8.052056, 0.05748047, 0.41344753, 0.07989483, 0.27377295, 0.29933932
1566316276074, 12.731076, 9.953702, -7.937095, -0.081430666, 0.4161818, 0.068176925, 0.24820662, 0.3270362
1566316276080, 12.784826, 10.147698, -7.776629, -0.0047900393, 0.39132923, 0.07243799, 0.19707392, 0.330232
1566316276081, 13.068004, 10.492581, -7.788604, -0.12693603, 0.36178553, 0.0628506, 0.1438107, 0.32597092
1566316276093, 13.427223, 10.832674, -7.932305, -0.14849122, 0.30675548, 0.041545313, 0.080960095, 0.29294774
1566316276094, 13.9062805, 11.330838, -8.056846, -0.28979737, 0.24541575, 0.041545313, 0.0053263223, 0.24181503
1566316276101, 14.241934, 11.714041, -8.097562, -0.2083667, 0.20739853, 0.024501082, -0.08522116, 0.18748654
1566316276102, 14.637773, 12.0182085, -8.356223, -0.023950197, 0.21803859, 0.013848438, -0.18535602, 0.113983296
1566316276110, 14.866691, 12.216995, -8.471185, -0.050295413, 0.29369247, 0.017044231, -0.2908172, 0.037284255
1566316276111, 15.123796, 12.482842, -8.538245, 0.07903565, 0.42386013, 0.0053263223, -0.41864893, -0.066046394
1566316276125, 15.262254, 12.5738535, -8.648416, 0.19878663, 0.55511415, 0.015978966, -0.53476274, -0.14807177
1566316276126, 15.425691, 12.640914, -8.828042, 0.4742139, 0.72071576, 0.033023197, -0.67963874, -0.23755397
1566316276130, 15.498654, 12.770245, -8.765772, 0.5388794, 0.87975234, 0.056459017, -0.8181231, -0.31851408
1566316276131, 15.561282, 12.74869, -8.892708, 0.7376661, 1.067463, 0.09374327, -0.9779128, -0.41758367
1566316276141, 15.573476, 12.77743, -8.847202, 0.9987232, 1.2522477, 0.1257012, -1.1408982, -0.5006743
1566316276142, 15.6741495, 12.85886, -8.866363, 1.3100758, 1.448779, 0.18322548, -1.3113406, -0.588026
1566316276151, 15.648512, 12.897181, -8.753797, 1.3819263, 1.6322875, 0.21198763, -1.4668691, -0.68389976
1566316276152, 15.7373, 12.945081, -8.808882, 1.5783179, 1.8076781, 0.25566345, -1.6106799, -0.7797736
1566316276161, 15.621001, 12.882811, -8.691526, 1.583108, 1.9909462, 0.2876214, -1.7512947, -0.902279
1566316276162, 15.327831, 12.650494, -8.49753, 1.6429834, 2.1522696, 0.3206446, -1.8716697, -1.0130665
1566316276169, 14.978449, 12.437337, -8.178992, 1.6645386, 2.3019998, 0.330232, -1.9750003, -1.135572
1566316276174, 14.65769, 12.255316, -7.8820095, 1.590293, 2.4256961, 0.33662358, -2.0644825, -1.2282499
1566316276185, 14.261645, 11.917618, -7.6664577, 1.6094532, 2.5305073, 0.3472762, -2.1209416, -1.3358417
1566316276186, 13.851928, 11.591895, -7.4030056, 1.6429834, 2.6295068, 0.3472762, -2.171009, -1.442368
1566316276191, 13.61684, 11.407478, -7.230564, 1.7339942, 2.71169, 0.34834146, -2.2050974, -1.5393071
1566316276192, 13.314622, 11.1104965, -7.103628, 1.8369801, 2.7780752, 0.350472, -2.2136195, -1.6415725
1566316276206, 12.91235, 10.808723, -6.813831, 1.8633252, 2.8430104, 0.36218992, -2.2168152, -1.7427727
1566316276207, 12.471954, 10.360855, -6.6174393, 2.1004322, 2.8751574, 0.36432046, -2.1891184, -1.8279938
1566316276211, 12.06417, 10.023157, -6.334827, 2.2249732, 2.904855, 0.3920173, -2.163552, -1.8983012
1566316276214, 11.778534, 9.764495, -6.1528053, 2.3519094, 2.9361722, 0.41225734, -2.126268, -1.9824572
1566316276226, 11.434258, 9.383687, -6.0402393, 2.4908204, 2.960564, 0.44741106, -2.091114, -2.0474384
1566316276227, 11.13569, 9.125025, -5.760022, 2.7494826, 2.9772346, 0.4889564, -2.0335898, -2.118811
1566316276232, 10.902935, 8.847202, -5.695357, 2.8572583, 2.9809542, 0.5411543, -1.9579561, -2.1816616
1566316276234, 10.535537, 8.485555, -5.582791, 2.7973828, 2.993283, 0.5837649, -1.8961707, -2.2413163
1566316276247, 10.383042, 8.315508, -5.5492606, 2.804568, 3.0043762, 0.64768076, -1.8226675, -2.2988408
1566316276248, 10.199889, 8.133487, -5.4678297, 2.8261232, 3.0018, 0.6870956, -1.7353158, -2.3510387
1566316276251, 9.983679, 7.8652444, -5.49178, 2.7662477, 2.9960408, 0.74035877, -1.6458336, -2.3915186
1566316276252, 9.813272, 7.7167535, -5.4247193, 2.7063723, 2.9976218, 0.79255676, -1.5563514, -2.4362597
1566316276267, 9.491655, 7.448511, -5.4223247, 2.2824538, 2.9838989, 0.8277105, -1.4689997, -2.461826
1566316276268, 9.314402, 7.1778736, -5.5157304, 2.193838, 2.9723475, 0.85327685, -1.3912354, -2.4841967
1566316276272, 9.113312, 6.964717, -5.489385, 2.1004322, 2.9493306, 0.8841695, -1.3070794, -2.4916537
1566316276275, 8.963855, 6.7731156, -5.606741, 1.7435743, 2.9400845, 0.9129316, -1.220793, -2.514024
1566316276287, 8.951032, 6.734795, -5.6761966, 1.5950831, 2.910373, 0.9289106, -1.1462245, -2.5086977
1566316276288, 9.02401, 6.7467704, -5.831873, 1.3795313, 2.8879197, 0.93423694, -1.0684602, -2.5150893
1566316276293, 9.039081, 6.710845, -5.9204884, 1.2717555, 2.8588629, 0.94488955, -0.9960223, -2.5076325
1566316276296, 9.08161, 6.6485744, -6.104905, 1.0011182, 2.8382998, 0.9491506, -0.9310411, -2.5076325
1566316276305, 9.039977, 6.569539, -6.1719656, 0.6849756, 2.8125768, 0.9395633, -0.8692558, -2.5044367
1566316276306, 9.04305, 6.6653395, -6.090535, 0.50534916, 2.794312, 0.91612744, -0.80533993, -2.514024
1566316276317, 8.976955, 6.5312185, -6.1552005, 0.20597169, 2.7652197, 0.88203895, -0.74035877, -2.514024
1566316276318, 8.948453, 6.4976883, -6.1504107, -0.16525635, 2.7404518, 0.83729786, -0.69135666, -2.5161545
1566316276323, 8.860676, 6.461763, -6.047425, -0.43110353, 2.7063088, 0.7680557, -0.63915867, -2.5150893
1566316276324, 8.820216, 6.361172, -6.0689797, -0.7065308, 2.6724381, 0.70627034, -0.59122175, -2.5086977
1566316276334, 8.899922, 6.3779373, -6.1216702, -1.0274634, 2.6430154, 0.6114618, -0.53476274, -2.5150893
1566316276335, 9.058564, 6.444998, -6.224656, -1.331631, 2.6224265, 0.5230448, -0.48469532, -2.5236115
1566316276346, 9.182046, 6.437813, -6.346802, -1.6070582, 2.607216, 0.40906155, -0.4314321, -2.538525
1566316276347, 9.265289, 6.3851223, -6.456973, -1.839375, 2.5812185, 0.29294774, -0.3568636, -2.5395904
1566316276354, 9.220691, 6.3012967, -6.476133, -1.8369801, 2.568009, 0.16937704, -0.28975195, -2.5459821
1566316276355, 9.3430605, 6.337222, -6.5719337, -1.9854712, 2.5701218, 0.049002163, -0.21198763, -2.5608957
1566316276363, 9.42914, 6.368357, -6.6605496, -1.9974464, 2.5575697, -0.06498113, -0.12996227, -2.553439
1566316276363, 9.432192, 6.2701616, -6.758745, -1.9926564, 2.5693865, -0.18748654, -0.054328486, -2.561961
1566316276371, 9.494314, 6.2031007, -6.933582, -1.8944606, 2.580645, -0.29933932, 0.03195793, -2.5630262
1566316276372, 9.407393, 6.0570045, -6.964717, -1.81782, 2.5880048, -0.40586576, 0.113983296, -2.553439
1566316276381, 9.313312, 5.8270826, -7.072493, -1.6621436, 2.6004171, -0.5028048, 0.20879184, -2.5427864
1566316276384, 9.21391, 5.702542, -7.101233, -1.3962965, 2.6044123, -0.56885123, 0.26312032, -2.5278726
1566316276392, 9.203894, 5.601951, -7.216194, -1.1208692, 2.596994, -0.644485, 0.3153183, -2.4959147
1566316276395, 9.01928, 5.2738333, -7.2521195, -0.9699829, 2.5937152, -0.70627034, 0.36218992, -2.469283
1566316276404, 8.935912, 5.039121, -7.350315, -0.6562354, 2.5684323, -0.7595336, 0.39627838, -2.4213462
1566316276405, 8.870724, 4.8307548, -7.424561, -0.47900394, 2.53281, -0.78723043, 0.43888897, -2.3670175
1566316276414, 8.77265, 4.6750784, -7.4101906, -0.4382886, 2.496603, -0.8309063, 0.4676511, -2.3073628
1566316276415, 8.733293, 4.4667115, -7.4988065, -0.2945874, 2.4473057, -0.8628642, 0.48043427, -2.2391858
1566316276425, 8.706531, 4.3230104, -7.553892, -0.23231691, 2.3830607, -0.8831042, 0.4910869, -2.1582258
1566316276425, 8.637681, 4.1098537, -7.5970025, -0.06466553, 2.3128345, -0.9150622, 0.47723848, -2.0698087
1566316276434, 8.573477, 3.8847218, -7.6425076, -0.07424561, 2.2308726, -0.93423694, 0.46019423, -1.9728698
1566316276435, 8.677071, 3.906277, -7.7478886, -0.05269043, 2.1547108, -0.9651296, 0.44741106, -1.8738002
1566316276445, 8.69414, 3.9206471, -7.7598634, -0.033530276, 2.0794816, -1.0002834, 0.4261058, -1.7726
1566316276446, 8.757615, 3.8559816, -7.8604546, -0.20118165, 1.9918537, -1.0279802, 0.39521313, -1.659682
1566316276455, 8.818427, 3.8679566, -7.9227247, -0.18441652, 1.9130588, -1.0620687, 0.36432046, -1.5488945
1566316276456, 8.976637, 3.906277, -8.073611, -0.37122804, 1.8617135, -1.1110709, 0.33768883, -1.4551512
1566316276465, 9.007551, 3.9398074, -8.087981, -0.44547364, 1.7961996, -1.1632688, 0.29294774, -1.3369069
1566316276466, 9.1721115, 4.006868, -8.234077, -0.5221143, 1.7430011, -1.220793, 0.26525086, -1.2154667
1566316276475, 9.24092, 4.016448, -8.291558, -0.7161109, 1.7124752, -1.2857742, 0.22796659, -1.107875
1566316276476, 9.287449, 4.030818, -8.337064, -0.7089258, 1.6965647, -1.3635385, 0.20453078, -0.98856544
1566316276486, 9.274362, 4.009263, -8.3322735, -0.7161109, 1.6829685, -1.4327807, 0.16618125, -0.8671253
1566316276489, 9.28688, 3.9733377, -8.356223, -0.7951465, 1.6833895, -1.5030881, 0.16724652, -0.7392935
1566316276495, 9.288685, 3.9757326, -8.363408, -0.72569096, 1.6981863, -1.5840483, 0.15020229, -0.5933523
1566316276496, 9.0891905, 3.8703518, -8.200547, -0.62031007, 1.7224153, -1.655421, 0.13209279, -0.45699844
1566316276506, 9.067348, 3.8152664, -8.214917, -0.41912845, 1.7446892, -1.71188, 0.11824436, -0.3153183
1566316276507, 8.976808, 3.8344264, -8.109536, -0.34009278, 1.7774335, -1.7662084, 0.10865697, -0.16724652
1566316276515, 9.116238, 3.891907, -8.243657, 0.031135255, 1.8172352, -1.8152106, 0.08522116, -0.00958738
1566316276516, 9.28048, 4.054768, -8.339458, 0.37362307, 1.861635, -1.8556907, 0.068176925, 0.13209279
1566316276526, 9.651474, 4.25595, -8.636441, 0.6706055, 1.8835227, -1.8620822, 0.04261058, 0.28016454
1566316276527, 9.83817, 4.397256, -8.749006, 0.9532178, 1.9106857, -1.8599517, 0.03834952, 0.43569317
1566316276536, 10.203524, 4.703819, -8.947793, 1.3867164, 1.9346403, -1.8429075, 0.04474111, 0.58696073
1566316276537, 10.459618, 4.8283596, -9.137, 1.6142433, 1.9526333, -1.8098843, 0.05539375, 0.7307714
1566316276546, 10.521073, 4.878655, -9.10347, 2.0046315, 1.9478914, -1.743838, 0.07137272, 0.86499476
1566316276547, 10.574602, 4.960086, -9.026829, 2.3950195, 1.9622275, -1.6788567, 0.08735169, 1.0120013
1566316276556, 10.506331, 5.007986, -8.854387, 2.6273365, 1.9468616, -1.5744609, 0.08522116, 1.1419635
1566316276557, 10.62644, 5.3217335, -8.701106, 2.9817994, 1.967336, -1.4881744, 0.08948222, 1.2836437
1566316276566, 10.650802, 5.3001785, -8.710687, 3.0776002, 1.9827127, -1.3923006, 0.096939065, 1.4082797
1566316276567, 11.037655, 5.815108, -8.844808, 3.1278956, 2.0028222, -1.2836437, 0.10226539, 1.5339808
1566316276577, 11.106878, 6.0306597, -8.854387, 2.931504, 2.0206318, -1.1835088, 0.13741912, 1.6319852
1566316276578, 11.468921, 6.2941117, -9.168135, 2.804568, 2.060465, -1.1004182, 0.18535602, 1.73212
1566316276584, 11.356536, 6.464158, -8.962164, 2.6201515, 2.104533, -1.0279802, 0.24074976, 1.820537
1566316276586, 11.1293335, 6.449788, -8.746612, 2.3998096, 2.1681466, -0.95128113, 0.314253, 1.9228023
1566316276595, 10.86889, 6.2845316, -8.557405, 2.3255641, 2.234299, -0.8767126, 0.37390783, 2.0208068
1566316276596, 10.406746, 6.1935205, -8.011341, 2.3998096, 2.3014572, -0.8085357, 0.4250405, 2.1124194
1566316276607, 10.056027, 6.09293, -7.6353226, 2.3878345, 2.3790877, -0.73609775, 0.4463458, 2.2178805
1566316276608, 9.826194, 6.090535, -7.2760696, 2.5530908, 2.4508495, -0.66365975, 0.4612595, 2.3137543
1566316276617, 9.897284, 6.2869267, -7.182664, 2.6153615, 2.507106, -0.58696073, 0.4708469, 2.3915186
1566316276620, 9.958913, 6.5407987, -7.0126176, 2.687212, 2.5663662, -0.50600064, 0.46019423, 2.4735441
1566316276627, 10.367987, 7.0126176, -7.1491337, 2.684817, 2.6055145, -0.4261058, 0.44208476, 2.5321336
1566316276628, 10.706303, 7.3814507, -7.2593045, 2.7279274, 2.6257172, -0.330232, 0.42184472, 2.5704832
1566316276637, 11.072809, 7.8748245, -7.30481, 2.6896071, 2.6610436, -0.23116238, 0.40053943, 2.6205506
1566316276638, 11.538417, 8.308323, -7.537127, 2.7015822, 2.6697495, -0.13954964, 0.3888215, 2.6375947
1566316276647, 12.012697, 8.842413, -7.661668, 2.7231374, 2.6548977, -0.037284255, 0.36751625, 2.6290727
1566316276648, 12.454403, 9.357342, -7.790999, 2.6177564, 2.6542616, 0.068176925, 0.350472, 2.630138
1566316276658, 12.852513, 9.83874, -7.8915896, 2.4716604, 2.6392758, 0.17044231, 0.33768883, 2.6120284
1566316276659, 13.311181, 10.241104, -8.109536, 2.5578809, 2.6180782, 0.28442562, 0.3334278, 2.5811357
1566316276668, 13.658077, 10.672208, -8.205338, 2.3064039, 2.5901663, 0.3920173, 0.3334278, 2.538525
1566316276669, 14.022795, 10.99314, -8.418494, 2.2177882, 2.5594425, 0.49321744, 0.33129725, 2.489523
1566316276678, 14.28545, 11.323653, -8.473579, 2.0118165, 2.5218043, 0.5901565, 0.3270362, 2.4298682
1566316276679, 14.540116, 11.656561, -8.504715, 1.7914747, 2.4671538, 0.6668556, 0.33129725, 2.352104
1566316276688, 14.583491, 11.716436, -8.54543, 1.5423926, 2.4335375, 0.7392935, 0.32490566, 2.295645
1566316276689, 14.706134, 11.809842, -8.6627865, 1.3244458, 2.3812516, 0.81066626, 0.3291667, 2.2146847
1566316276697, 14.529361, 11.836187, -8.361013, 1.0490186, 2.3269386, 0.8692558, 0.32597092, 2.1337247
1566316276698, 14.250481, 11.606265, -8.214917, 0.9412427, 2.2903965, 0.9086706, 0.3174488, 2.078331
1566316276708, 13.841886, 11.282937, -7.9921803, 0.6466553, 2.2470841, 0.9491506, 0.32170987, 2.0112193
1566316276709, 13.435043, 11.03625, -7.6496925, 0.42870852, 2.2315106, 0.9896307, 0.3089267, 1.9760655
1566316276717, 12.894331, 10.621912, -7.30481, 0.2802173, 2.208345, 1.0088054, 0.30999196, 1.9398465
1566316276721, 12.5574045, 10.399176, -7.0365677, 0.17962648, 2.1883643, 1.0226538, 0.2876214, 1.9132149
1566316276728, 12.1787, 10.154883, -6.7228203, 0.05269043, 2.1734982, 1.0365024, 0.28016454, 1.8897791
1566316276729, 11.745429, 9.759705, -6.5312185, -0.21555176, 2.1675596, 1.0460896, 0.28442562, 1.8769959
1566316276738, 11.263906, 9.407638, -6.183941, -0.36164796, 2.1492565, 1.0322412, 0.28016454, 1.8642128
1566316276739, 10.806881, 9.1202345, -5.7767873, -0.488584, 2.12653, 1.015197, 0.27483824, 1.8482338
1566316276747, 10.321347, 8.804092, -5.336104, -0.7376661, 2.0927958, 0.97258645, 0.27696875, 1.8322549
1566316276749, 9.85531, 8.514295, -4.878655, -0.91250247, 2.0508852, 0.9214538, 0.26418558, 1.8130801
1566316276756, 9.542873, 8.327483, -4.517007, -1.1472144, 2.0088701, 0.8767126, 0.27483824, 1.7864485
1566316276769, 9.422664, 8.296348, -4.25595, -1.3579761, 1.9517331, 0.79894835, 0.29827404, 1.7555559
1566316276772, 9.2947235, 8.258028, -4.016448, -1.4370118, 1.8810538, 0.7286409, 0.314253, 1.7054884
1566316276773, 9.1925535, 8.248447, -3.7649708, -1.5136524, 1.8091685, 0.6423545, 0.35153726, 1.6543556
1566316276776, 9.121926, 8.236472, -3.6164796, -1.5136524, 1.7487549, 0.5773733, 0.4016047, 1.6010925
1566316276777, 9.166413, 8.286768, -3.6308498, -1.4729371, 1.6687169, 0.5028048, 0.44528055, 1.5275892
1566316276786, 9.217798, 8.392149, -3.5039136, -1.5040723, 1.6002308, 0.43995422, 0.5028048, 1.454086
1566316276787, 9.082386, 8.329878, -3.3650026, -1.334026, 1.5163683, 0.37923414, 0.54435015, 1.3635385
1566316276796, 9.053448, 8.327483, -3.3937428, -1.0490186, 1.4556768, 0.3387541, 0.5901565, 1.2868395
1566316276797, 9.09769, 8.377779, -3.4344583, -0.8861573, 1.3996217, 0.30253512, 0.6327671, 1.2112057
1566316276807, 8.941607, 8.229287, -3.4057178, -0.7951465, 1.3474842, 0.28655612, 0.680704, 1.1270498
1566316276808, 8.755211, 8.037686, -3.4440382, -0.43349856, 1.3068681, 0.27803403, 0.7041398, 1.0652645
1566316276817, 8.668687, 7.9538603, -3.427273, -0.36883304, 1.277626, 0.26312032, 0.72970617, 1.015197
1566316276818, 8.451944, 7.719148, -3.415298, -0.43110353, 1.2400213, 0.25566345, 0.74781567, 0.9555422
1566316276827, 8.270797, 7.527547, -3.4057178, -0.3784131, 1.2294005, 0.26844665, 0.773382, 0.9171927
1566316276828, 8.069336, 7.2688847, -3.4871485, -0.3424878, 1.1938744, 0.257794, 0.7755125, 0.87032104
1566316276840, 7.993932, 7.185059, -3.4799635, -0.40954837, 1.1897106, 0.26738137, 0.78936094, 0.8490158
1566316276841, 7.8799977, 7.0006423, -3.5949244, -0.4023633, 1.1629258, 0.257794, 0.7819041, 0.8213189
1566316276848, 7.8004627, 6.8832865, -3.6500099, -0.38080812, 1.1409733, 0.26205507, 0.77125144, 0.79894835
1566316276849, 7.753987, 6.7707205, -3.7458107, -0.5005591, 1.1199396, 0.27164245, 0.7499462, 0.7861652
1566316276858, 7.7380705, 6.68929, -3.8631666, -0.45505372, 1.0764344, 0.2759035, 0.7030745, 0.7669904
1566316276859, 7.7392516, 6.6485744, -3.9302273, -0.49576905, 1.0429223, 0.2727077, 0.6593987, 0.76059884
1566316276868, 7.7520185, 6.6485744, -3.9445972, -0.5748047, 0.997773, 0.26631612, 0.6135923, 0.74035877
1566316276868, 7.7736106, 6.6126494, -4.0523734, -0.5292993, 0.9687261, 0.27696875, 0.5613944, 0.7392935
1566316276877, 7.8934464, 6.6533647, -4.1888895, -0.70174074, 0.9288458, 0.257794, 0.51665324, 0.7275756
1566316276878, 8.115313, 6.7803006, -4.373306, -0.87178713, 0.9022344, 0.23755397, 0.4825648, 0.72437984
1566316276888, 8.269885, 6.8808913, -4.481082, -0.98195803, 0.8787173, 0.20985709, 0.4676511, 0.7137272
1566316276889, 8.290423, 6.792276, -4.622388, -1.1088941, 0.85935223, 0.17576863, 0.46019423, 0.7041398
1566316276898, 8.392632, 6.7970657, -4.7229786, -1.3891114, 0.84774035, 0.13528858, 0.45060685, 0.7052051
1566316276899, 8.417515, 6.7779055, -4.754114, -1.5208374, 0.83849984, 0.06498113, 0.45060685, 0.7041398
1566316276908, 8.364099, 6.701265, -4.727769, -1.6429834, 0.8356027, 0.004261058, 0.44315, 0.70840085
1566316276909, 8.423468, 6.686895, -4.790039, -1.8154249, 0.85603064, -0.06924219, 0.44741106, 0.72651035
1566316276918, 8.46943, 6.701265, -4.8379397, -1.8489552, 0.88885576, -0.13954964, 0.4527374, 0.7520767
1566316276919, 8.435724, 6.6413894, -4.864285, -1.84177, 0.9348374, -0.22903186, 0.4708469, 0.77444726
1566316276928, 8.552365, 6.672525, -5.0271463, -1.829795, 0.9742355, -0.2908172, 0.46658584, 0.8042747
1566316276929, 8.62594, 6.816226, -5.0415163, -1.590293, 1.0140367, -0.36432046, 0.45486793, 0.829841
1566316276939, 8.838083, 7.0150127, -5.1876125, -1.4106666, 1.0595307, -0.4261058, 0.44741106, 0.8607337
1566316276939, 9.040122, 7.185059, -5.352869, -1.2022998, 1.0841546, -0.46871635, 0.44315, 0.87138635
1566316276948, 9.3626995, 7.429351, -5.621111, -0.9316626, 1.1323721, -0.49854377, 0.44315, 0.9150622
1566316276955, 9.718404, 7.790999, -5.7696023, -0.6777906, 1.1604457, -0.51665324, 0.45486793, 0.93423694
1566316276961, 9.853552, 7.8580594, -5.9300685, -0.42152345, 1.1892542, -0.51771855, 0.4612595, 0.96619487
1566316276962, 10.300965, 8.262817, -6.1480155, -0.1939966, 1.2181731, -0.50387007, 0.49002165, 0.99495703
1566316276974, 10.619627, 8.499925, -6.365962, 0.047900394, 1.2216799, -0.49002165, 0.50813115, 0.99708754
1566316276975, 10.867919, 8.763377, -6.4258375, 0.15328126, 1.2453821, -0.47617322, 0.535828, 1.0183928
1566316276981, 11.173014, 9.072334, -6.5168486, 0.244292, 1.2546636, -0.45912898, 0.5635249, 1.0226538
1566316276982, 11.313692, 9.297466, -6.4426026, 0.22273682, 1.2650956, -0.44208476, 0.5901565, 1.0279802
1566316276994, 11.649659, 9.627979, -6.557564, 0.122146, 1.2554448, -0.40906155, 0.5933523, 1.0279802
1566316276995, 11.822293, 9.850716, -6.5360084, 0.102985844, 1.2424445, -0.39095205, 0.5965481, 1.0173275
1566316276998, 12.187455, 10.221944, -6.6365995, 0.038320314, 1.2230535, -0.3749731, 0.5901565, 1.0034791
1566316276999, 12.353489, 10.3512745, -6.74198, 0.07424561, 1.1925335, -0.36218992, 0.5581986, 0.9896307
1566316277014, 12.480361, 10.554852, -6.6581545, 0.15328126, 1.1481441, -0.36218992, 0.515588, 0.9598033
1566316277015, 12.668585, 10.722503, -6.7467704, 0.045505375, 1.0979183, -0.350472, 0.4708469, 0.92784536
1566316277022, 12.917834, 11.072176, -6.6533647, 0.100590825, 1.0441059, -0.34408042, 0.39947417, 0.9012137
1566316277022, 13.111611, 11.208692, -6.8018556, 0.119750984, 0.9759735, -0.330232, 0.3174488, 0.86179894
1566316277035, 13.448467, 11.5751295, -6.840176, 0.29937744, 0.90960735, -0.30999196, 0.24181503, 0.8202536
1566316277035, 13.873489, 11.931988, -7.072493, 0.28500733, 0.8361213, -0.3089267, 0.15339808, 0.7616641
1566316277041, 14.189935, 12.240946, -7.168294, 0.35925296, 0.75304556, -0.28549087, 0.068176925, 0.69348717
1566316277042, 14.709412, 12.715159, -7.3790555, 0.49097902, 0.6696287, -0.28229508, -0.036218993, 0.6061355
1566316277055, 15.05061, 13.019327, -7.534732, 0.49576905, 0.60689974, -0.27803403, -0.13209279, 0.5230448
1566316277056, 15.533821, 13.4169, -7.810159, 0.5364844, 0.5522243, -0.28229508, -0.23329292, 0.4133226
1566316277059, 15.890973, 13.682747, -8.073611, 0.34967285, 0.5275899, -0.28549087, -0.3121225, 0.3153183
1566316277060, 16.09985, 13.768968, -8.337064, 0.33769777, 0.5134376, -0.294013, -0.36112466, 0.21624869
1566316277075, 16.297327, 13.838424, -8.605306, 0.22273682, 0.51395667, -0.30466563, -0.40053943, 0.10439592
1566316277076, 16.233437, 13.651612, -8.782537, 0.1580713, 0.53219104, -0.3291667, -0.41758367, 0.022370555
1566316277082, 16.144676, 13.498331, -8.854387, 0.21315674, 0.54301745, -0.3323625, -0.4261058, -0.053263225
1566316277083, 16.052256, 13.357024, -8.890313, 0.4766089, 0.5607644, -0.33662358, -0.4314321, -0.12250541
1566316277093, 15.7758255, 13.074412, -8.804092, 0.6514453, 0.5860707, -0.34514567, -0.44315, -0.16724652
1566316277094, 15.694108, 12.937896, -8.835227, 0.9244776, 0.6174914, -0.34621096, -0.46232477, -0.21837921
1566316277099, 15.63322, 12.84449, -8.859178, 0.9651929, 0.62648875, -0.32810146, -0.47191215, -0.24927188
1566316277100, 15.695317, 12.775035, -9.043594, 1.1639795, 0.6293117, -0.3089267, -0.47191215, -0.2790993
1566316277109, 15.625094, 12.73432, -8.964559, 1.2717555, 0.6118421, -0.28229508, -0.4463458, -0.3089267
1566316277110, 15.501028, 12.537928, -9.024434, 1.2813355, 0.5824601, -0.25246766, -0.41225734, -0.32490566
1566316277119, 15.249983, 12.343931, -8.847202, 1.3843213, 0.5403842, -0.20453078, -0.3568636, -0.350472
1566316277120, 14.887996, 12.099639, -8.538245, 1.5328126, 0.49968624, -0.16831179, -0.29507825, -0.36645097
1566316277130, 14.462411, 11.843372, -8.126302, 1.6908839, 0.4519007, -0.112918034, -0.24394555, -0.36325517
1566316277131, 14.111526, 11.668535, -7.7071733, 1.8920655, 0.4478902, -0.046871636, -0.2247708, -0.38456047
1566316277146, 13.931302, 11.6805105, -7.2808595, 2.1531227, 0.47265342, 0.022370555, -0.23009712, -0.41225734
1566316277147, 13.913793, 11.802657, -7.0174074, 2.2465284, 0.5343212, 0.08522116, -0.257794, -0.46019423
1566316277153, 14.129536, 12.14275, -6.8904715, 2.1722827, 0.64361024, 0.14487597, -0.31318775, -0.5432849
1566316277154, 14.546215, 12.537928, -7.084468, 2.0501368, 0.7655072, 0.19813919, -0.3717773, -0.63915867
1566316277166, 15.018579, 12.937896, -7.36708, 1.9734962, 0.9123989, 0.2514024, -0.43675843, -0.76059884
1566316277167, 15.453529, 13.318705, -7.6281376, 1.7986598, 1.0550777, 0.28229508, -0.50173956, -0.8841695
1566316277173, 15.6515, 13.45043, -7.8365045, 1.6262183, 1.2088817, 0.314253, -0.56672066, -1.0205233
1566316277174, 15.836618, 13.46959, -8.190968, 1.5088624, 1.3441718, 0.35473305, -0.6178534, -1.139833
1566316277186, 15.8198395, 13.357024, -8.346643, 1.4801221, 1.4818352, 0.3920173, -0.66579026, -1.2644689
1566316277187, 15.7090845, 13.134288, -8.499925, 1.4202466, 1.6078459, 0.43782368, -0.73290193, -1.3624732
1566316277193, 15.5623455, 12.789405, -8.725057, 1.5783179, 1.731105, 0.4889564, -0.81918836, -1.4444987
1566316277194, 15.399115, 12.557088, -8.765772, 1.6166383, 1.8497587, 0.5411543, -0.9044095, -1.5201324
1566316277207, 15.23941, 12.25771, -8.892708, 1.705254, 1.96356, 0.59761333, -1.0013486, -1.5797871
1566316277208, 15.126303, 12.032578, -8.978929, 1.8441651, 2.084384, 0.660464, -1.1142666, -1.6330504
1566316277213, 14.984739, 11.802657, -9.060359, 1.7747096, 2.1986558, 0.7126619, -1.2293152, -1.6777915
1566316277214, 14.81067, 11.55118, -9.115445, 1.6836988, 2.3243093, 0.76485986, -1.3507553, -1.7299895
1566316277226, 14.702904, 11.433824, -9.101074, 1.6166383, 2.4438164, 0.79255676, -1.4775218, -1.7779263
1566316277227, 14.377832, 11.203902, -8.911868, 1.331631, 2.5377762, 0.8085357, -1.5723304, -1.820537
1566316277231, 14.162388, 11.014695, -8.837623, 1.0705738, 2.628239, 0.80533993, -1.6564863, -1.8748654
1566316277232, 13.917989, 10.844649, -8.677156, 0.90052736, 2.6896968, 0.78296936, -1.7172064, -1.9164108
1566316277245, 13.699972, 10.662627, -8.576566, 0.66342044, 2.7436774, 0.74781567, -1.7811222, -1.9483687
1566316277246, 13.422346, 10.483001, -8.363408, 0.56522465, 2.7917764, 0.716923, -1.804558, -2.005893
1566316277256, 13.175922, 10.308165, -8.186177, 0.57719976, 2.8244832, 0.6679208, -1.8226675, -2.0516994
1566316277257, 12.975373, 10.217154, -7.9826, 0.4981641, 2.8612885, 0.6135923, -1.8322549, -2.1102889
1566316277265, 12.633325, 9.984837, -7.7167535, 0.5963599, 2.89035, 0.567786, -1.8279938, -2.1656826
1566316277266, 12.405953, 9.867481, -7.4964113, 0.58677983, 2.9091141, 0.5187838, -1.8109496, -2.2168152
1566316277275, 12.06252, 9.5489435, -7.335945, 0.7113208, 2.904439, 0.47617322, -1.7672738, -2.2551649
1566316277277, 11.787302, 9.376502, -7.086863, 0.8933423, 2.905395, 0.43675843, -1.7235979, -2.2977755
1566316277282, 11.511394, 9.14179, -6.9216065, 1.0154883, 2.9165847, 0.40053943, -1.6714, -2.356365
1566316277288, 11.291001, 8.966953, -6.758745, 1.1831397, 2.908331, 0.37390783, -1.6010925, -2.3989756
1566316277293, 11.086006, 8.770562, -6.6485744, 1.331631, 2.917516, 0.36005938, -1.5339808, -2.4554346
1566316277294, 10.727466, 8.47837, -6.4138627, 1.4346168, 2.9006946, 0.34514567, -1.4572818, -2.4841967
1566316277306, 10.561425, 8.296348, -6.351592, 1.5399976, 2.9023843, 0.3323625, -1.3731259, -2.5353293
1566316277307, 10.471082, 8.178992, -6.325247, 1.6549586, 2.8813741, 0.33981937, -1.2761868, -2.5608957
1566316277316, 10.218803, 7.9730206, -6.1480155, 1.7483643, 2.8802428, 0.3387541, -1.1749867, -2.6077673
1566316277317, 10.022368, 7.7526784, -6.08814, 1.8106349, 2.8814034, 0.3568636, -1.067395, -2.6525085
1566316277326, 9.71232, 7.4509063, -5.980364, 1.7459693, 2.8711665, 0.36432046, -0.96299905, -2.6802053
1566316277328, 9.490195, 7.2185893, -5.9061184, 1.7531544, 2.852601, 0.37710363, -0.8586032, -2.694054
1566316277334, 9.296306, 7.031778, -5.824688, 1.7459693, 2.851037, 0.4048005, -0.7499462, -2.7206855
1566316277335, 9.064859, 6.7611403, -5.7887626, 1.7172291, 2.836821, 0.41438788, -0.6668556, -2.7260118
1566316277344, 8.972411, 6.6246243, -5.824688, 1.6405884, 2.8087332, 0.43036684, -0.5699165, -2.7164245
1566316277345, 8.91875, 6.485713, -5.879773, 1.705254, 2.7974968, 0.45486793, -0.49002165, -2.7164245
1566316277353, 8.846328, 6.303692, -6.047425, 1.3962965, 2.7822382, 0.46339005, -0.39840892, -2.7142937
1566316277354, 8.83919, 6.2677665, -6.09293, 1.3124708, 2.7674017, 0.4889564, -0.33129725, -2.7036412
1566316277363, 8.792633, 6.215076, -6.109695, 1.1639795, 2.7438874, 0.48363006, -0.26738137, -2.6876621
1566316277364, 8.687455, 6.0617948, -6.1599903, 0.88376224, 2.729261, 0.48149952, -0.21198763, -2.6780748
1566316277373, 8.699278, 6.0306597, -6.229446, 0.7089258, 2.725038, 0.48469532, -0.15659387, -2.6770096
1566316277374, 8.651043, 5.9540186, -6.253396, 0.5340894, 2.7120802, 0.47617322, -0.13848437, -2.666357
1566316277386, 8.604755, 5.8821683, -6.2725563, 0.31135255, 2.6928117, 0.44741106, -0.098004326, -2.6535738
1566316277387, 8.62543, 5.865403, -6.318062, 0.2778223, 2.6760688, 0.42717105, -0.07137272, -2.6407907
1566316277396, 8.657496, 5.8342676, -6.3947024, 0.1460962, 2.6581328, 0.4016047, -0.05965481, -2.6269422
1566316277397, 8.619054, 5.807923, -6.368357, -0.011975098, 2.6464825, 0.36645097, -0.0479369, -2.6205506
1566316277406, 8.731552, 5.767207, -6.552774, -0.20118165, 2.628507, 0.3355583, -0.039414786, -2.606702
1566316277407, 8.727968, 5.712122, -6.595884, -0.2083667, 2.6037805, 0.2972088, -0.039414786, -2.586462
1566316277413, 8.690655, 5.5564456, -6.672525, -0.36164796, 2.5942676, 0.25885928, -0.03089267, -2.5811357
1566316277414, 8.680887, 5.611531, -6.6126494, -0.37601808, 2.5702727, 0.21731395, -0.029827405, -2.5608957
1566316277423, 8.66245, 5.4247193, -6.7324004, -0.5340894, 2.5489063, 0.1587244, -0.023435818, -2.5438516
1566316277424, 8.639233, 5.1924024, -6.8856816, -0.5125342, 2.5221248, 0.112918034, -0.035153728, -2.5193505
1566316277433, 8.483894, 5.1612673, -6.720425, -0.4167334, 2.4970467, 0.070307456, -0.026631612, -2.4959147
1566316277434, 8.522627, 5.0510964, -6.8425713, -0.5484595, 2.4600472, 0.026631612, -0.03195793, -2.4596956
1566316277443, 8.469662, 4.9145803, -6.871311, -0.60594, 2.4209607, -0.029827405, -0.049002163, -2.420281
1566316277447, 8.303736, 4.749324, -6.7850904, -0.5987549, 2.3919663, -0.07882957, -0.03195793, -2.3904533
1566316277454, 8.202367, 4.509822, -6.832991, -0.5005591, 2.3357065, -0.13102753, -0.027696876, -2.3318639
1566316277455, 7.9887643, 4.24158, -6.75156, -0.49576905, 2.2932074, -0.1768339, -0.03834952, -2.2860575
1566316277467, 8.009113, 4.167334, -6.821016, -0.5029541, 2.23792, -0.23435818, -0.035153728, -2.2253375
1566316277468, 7.7925706, 3.887117, -6.7228203, -0.6466553, 2.171256, -0.2876214, -0.035153728, -2.1518342
1566316277477, 7.6400003, 3.7314405, -6.6437845, -0.55324954, 2.1089363, -0.34940675, -0.040480047, -2.0793962
1566316277478, 7.6681943, 3.5949244, -6.7563505, -0.47900394, 2.0399048, -0.39627838, -0.043675844, -2.0005667
1566316277487, 7.719774, 3.5829494, -6.823411, -0.44547364, 1.9619877, -0.43782368, -0.037284255, -1.9121497
1566316277488, 7.7239237, 3.5949244, -6.821016, -0.45744875, 1.893416, -0.49960902, -0.040480047, -1.8258632
1566316277497, 7.702992, 3.307522, -6.9383717, -0.50534916, 1.8199822, -0.5603291, -0.04261058, -1.7310548
1566316277498, 7.769143, 3.3865578, -6.969507, -0.5628296, 1.7391936, -0.6103965, -0.05219796, -1.627724
1566316277507, 7.938585, 3.4296682, -7.1371584, -0.56522465, 1.6741674, -0.6689861, -0.046871636, -1.5339808
1566316277508, 8.109099, 3.3865578, -7.34313, -0.60594, 1.5975459, -0.73290193, -0.040480047, -1.4189322
1566316277517, 8.199524, 3.4727786, -7.3886356, -0.76161623, 1.5410168, -0.80533993, -0.03089267, -1.3134711
1566316277518, 8.45569, 3.558999, -7.6281376, -0.80233157, 1.468404, -0.86606, -0.020240024, -1.1856394
1566316277529, 8.650252, 3.5661843, -7.829319, -0.90052736, 1.447451, -0.96086854, 0.02130529, -1.0823087
1566316277531, 8.752544, 3.6500099, -7.8844047, -1.0585986, 1.4050066, -1.031176, 0.041545313, -0.9534117
1566316277536, 8.835434, 3.6188745, -7.9849954, -1.099314, 1.4062322, -1.128115, 0.07456851, -0.8362326
1566316277538, 8.760499, 3.420088, -7.9730206, -1.2166699, 1.4092664, -1.2250541, 0.101200126, -0.6892261
1566316277546, 8.74474, 3.412903, -7.9778104, -1.0849439, 1.4304856, -1.3124058, 0.11611383, -0.5571333
1566316277548, 8.668656, 3.1997461, -7.9730206, -1.1567944, 1.4698572, -1.4050838, 0.13422333, -0.4101268
1566316277556, 8.506903, 3.05844, -7.8652444, -1.0729688, 1.5328193, -1.5052186, 0.16405073, -0.23861924
1566316277558, 8.456773, 2.943479, -7.8772197, -0.89573735, 1.6036165, -1.5925703, 0.16405073, -0.09161274
1566316277568, 8.352455, 2.8955786, -7.800579, -0.728086, 1.6915148, -1.6820526, 0.1587244, 0.082025364
1566316277570, 8.329333, 2.931504, -7.783814, -0.44307864, 1.7731764, -1.7502295, 0.14061491, 0.24714136
1566316277578, 8.3486395, 2.9099488, -7.824529, -0.09340577, 1.8486451, -1.7981664, 0.12250541, 0.4111921
1566316277581, 8.419997, 3.0799952, -7.8341093, 0.19160157, 1.9309989, -1.8397117, 0.09161274, 0.5795039
1566316277586, 8.776696, 3.4631984, -8.040081, 0.62749517, 2.010553, -1.8674086, 0.06178534, 0.74248934
1566316277590, 9.19473, 3.7386258, -8.356223, 0.859812, 2.0761461, -1.8738002, 0.02130529, 0.89375687
1566316277597, 9.645297, 4.0691385, -8.665181, 1.1783496, 2.14325, -1.8706044, 0.007456851, 1.0460896
1566316277610, 10.092008, 4.394861, -8.954978, 1.5304176, 2.1858552, -1.8301244, -0.0063915867, 1.1952267
1566316277611, 10.319433, 4.648733, -9.048384, 1.7339942, 2.2328172, -1.784318, 0.00958738, 1.3422332
1566316277612, 10.569406, 4.766089, -9.204061, 2.069297, 2.2643137, -1.7182716, 0.03195793, 1.474326
1566316277617, 10.495681, 4.87147, -9.0004835, 2.327959, 2.2995365, -1.6341157, 0.051132694, 1.6170714
1566316277618, 10.600121, 4.91937, -9.022039, 2.6009912, 2.3425853, -1.5339808, 0.06178534, 1.7694043
1566316277629, 10.634267, 4.998406, -8.883128, 3.032095, 2.3886876, -1.4327807, 0.06924219, 1.9100192
1566316277630, 10.702544, 5.122947, -8.787327, 3.3290772, 2.4258678, -1.3006879, 0.07350325, 2.0463731
1566316277639, 10.9012165, 5.3145485, -8.844808, 3.515889, 2.4811187, -1.1675298, 0.07243799, 2.1880531
1566316277640, 11.138531, 5.5564456, -8.971744, 3.5637891, 2.5239093, -1.0365024, 0.07882957, 2.299906
1566316277651, 11.263433, 5.774392, -9.062755, 3.3745828, 2.606548, -0.9108011, 0.09161274, 2.4405208
1566316277653, 11.318103, 5.9180937, -9.093889, 3.2213013, 2.6799488, -0.78296936, 0.10439592, 2.5608957
1566316277657, 11.35914, 6.0737696, -9.067544, 3.1494508, 2.7719011, -0.6785734, 0.128897, 2.6844664
1566316277659, 11.190464, 6.1216702, -8.914263, 2.8788135, 2.8703635, -0.57311225, 0.13954964, 2.8091023
1566316277669, 11.0786705, 6.3012967, -8.717872, 2.6512868, 2.9657342, -0.4889564, 0.15659387, 2.9209552
1566316277671, 10.905366, 6.3635674, -8.5119, 2.4453151, 3.0588062, -0.4079963, 0.1555286, 3.0274816
1566316277678, 11.013168, 6.7755103, -8.372989, 2.2968237, 3.1546805, -0.3387541, 0.14807177, 3.1329427
1566316277680, 11.22687, 7.1443434, -8.404124, 2.090852, 3.2307293, -0.28336033, 0.14594123, 3.2149682
1566316277689, 11.493833, 7.472461, -8.53585, 1.8465601, 3.3053062, -0.22370553, 0.13741912, 3.294863
1566316277691, 11.900375, 8.047266, -8.600515, 1.7004639, 3.3713741, -0.1768339, 0.15765914, 3.36304
1566316277699, 12.358389, 8.55501, -8.782537, 1.5519727, 3.4161663, -0.12144015, 0.1438107, 3.410977
1566316277701, 12.905595, 9.13221, -9.0004835, 1.465752, 3.447801, -0.07456851, 0.16724652, 3.4429348
1566316277709, 13.298907, 9.5561285, -9.148975, 1.3555812, 3.4881213, -0.034088463, 0.17789917, 3.483415
1566316277712, 13.78475, 10.102193, -9.304651, 1.1783496, 3.5033176, 0.010652645, 0.20559604, 3.4972632
1566316277718, 14.300004, 10.669812, -9.441168, 1.2286451, 3.5052876, 0.06498113, 0.22796659, 3.4972632
1566316277721, 14.6134, 11.014695, -9.529783, 1.1879297, 3.4975498, 0.11717909, 0.25033715, 3.4866107
1566316277727, 15.043446, 11.481724, -9.632769, 1.2981006, 3.4883645, 0.18642128, 0.257794, 3.4738274
1566316277730, 15.441298, 11.943963, -9.697434, 1.3172607, 3.4733653, 0.25566345, 0.25353295, 3.4546525
1566316277738, 15.755847, 12.255316, -9.79563, 1.4489869, 3.4459589, 0.32597092, 0.2609898, 3.4205642
1566316277740, 15.8989105, 12.511582, -9.70941, 1.4010864, 3.4063344, 0.4048005, 0.2396845, 3.3736925
1566316277749, 15.975369, 12.679234, -9.604029, 1.4873072, 3.3536756, 0.48043427, 0.20133498, 3.3129725
1566316277750, 15.987341, 12.775035, -9.491463, 1.5184424, 3.3037438, 0.567786, 0.17044231, 3.2501218
1566316277758, 15.9291935, 12.882811, -9.24717, 1.5040723, 3.2467067, 0.6348976, 0.11504856, 3.1819448
1566316277759, 15.599613, 12.772639, -8.859178, 1.3124708, 3.2023256, 0.70840085, 0.066046394, 3.1222901
1566316277767, 15.2929, 12.581038, -8.595725, 1.3052857, 3.1624897, 0.7755125, 0.024501082, 3.0658312
1566316277769, 14.998264, 12.439732, -8.296348, 1.1711646, 3.1263664, 0.8277105, -0.025566347, 3.0146985
1566316277777, 14.7662525, 12.315191, -8.076006, 1.0753639, 3.0667205, 0.87032104, -0.054328486, 2.94013
1566316277780, 14.545497, 12.25292, -7.795789, 0.8143067, 3.0186627, 0.91612744, -0.080960095, 2.8751488
1566316277792, 14.2915, 12.214601, -7.3934255, 0.6227051, 2.952087, 0.9374327, -0.10333065, 2.7973845
1566316277793, 13.978924, 12.087664, -7.0054326, 0.47181886, 2.8795128, 0.95128113, -0.11611383, 2.7153592
1566316277801, 13.671496, 11.943963, -6.6461797, 0.28261232, 2.7930875, 0.9534117, -0.13954964, 2.621616
1566316277802, 13.40817, 11.893667, -6.1887307, 0.13891114, 2.701516, 0.9619338, -0.14274544, 2.5204158
1566316277814, 13.085149, 11.759546, -5.738467, 0.06466553, 2.5999434, 0.92997587, -0.1470065, 2.4234767
1566316277816, 12.722729, 11.56076, -5.3073635, -0.2203418, 2.487546, 0.9129316, -0.1438107, 2.3094933
1566316277818, 12.451797, 11.417059, -4.967271, -0.15567628, 2.3708715, 0.87990844, -0.13102753, 2.1976407
1566316277820, 12.13519, 11.244617, -4.550537, -0.33769777, 2.2378252, 0.84581995, -0.112918034, 2.0687435
1566316277832, 11.997373, 11.235037, -4.1936793, -0.3520679, 2.0985844, 0.8159926, -0.09054748, 1.9313245
1566316277834, 11.869858, 11.153606, -4.040398, -0.40715334, 1.9519095, 0.76592517, -0.037284255, 1.7949706
1566316277842, 11.799185, 11.167976, -3.776946, -0.48139894, 1.8063016, 0.737163, 0.004261058, 1.6490294
1566316277844, 11.641899, 11.067386, -3.5829494, -0.45744875, 1.6554148, 0.69987875, 0.06391586, 1.4988271
1566316277849, 11.553978, 11.02188, -3.4368532, -0.44786867, 1.5070333, 0.67218184, 0.13315806, 1.3422332
1566316277852, 11.422096, 10.894944, -3.3793726, -0.58677983, 1.3634329, 0.6402239, 0.21411815, 1.1845741
1566316277862, 11.174854, 10.667418, -3.293152, -0.488584, 1.2255886, 0.58909124, 0.28016454, 1.0375676
1566316277864, 10.95399, 10.403965, -3.3578174, -0.68737066, 1.125842, 0.5699165, 0.350472, 0.9054748
1566316277870, 10.690908, 10.147698, -3.297942, -0.6658155, 1.0163449, 0.52411014, 0.42397526, 0.76059884
1566316277872, 10.343594, 9.764495, -3.3218923, -0.7807764, 0.95329326, 0.4910869, 0.48682585, 0.6562029
1566316277882, 10.06237, 9.455538, -3.3578174, -0.7544312, 0.920481, 0.4708469, 0.5635249, 0.5550028
1566316277884, 9.801763, 9.108259, -3.539839, -0.76401126, 0.9023299, 0.45060685, 0.6125271, 0.4857606
1566316277890, 9.559301, 8.844808, -3.5494192, -0.7424561, 0.88947284, 0.4282363, 0.66365975, 0.40906155
1566316277892, 9.375146, 8.56938, -3.7194655, -0.79035646, 0.88647735, 0.41971418, 0.6988135, 0.34834146
1566316277903, 9.181562, 8.293953, -3.8631666, -0.7664063, 0.8759972, 0.3920173, 0.72437984, 0.29827404
1566316277905, 8.976333, 8.054451, -3.8679566, -0.859812, 0.8577357, 0.36645097, 0.73290193, 0.25353295
1566316277910, 8.807544, 7.793394, -3.9661524, -1.0514137, 0.8505988, 0.3472762, 0.7435546, 0.22370553
1566316277912, 8.623662, 7.553892, -4.021238, -1.0657837, 0.8150499, 0.3153183, 0.7286409, 0.18429075
1566316277919, 8.506496, 7.359895, -4.0978785, -1.1831397, 0.7812413, 0.28655612, 0.7041398, 0.18002969
1566316277921, 8.410678, 7.209009, -4.160149, -1.2094849, 0.7566851, 0.25672874, 0.69135666, 0.16937704
1566316277930, 8.135781, 6.8904715, -4.160149, -1.1855347, 0.7049709, 0.2130529, 0.65194184, 0.16298546
1566316277935, 8.088894, 6.7228203, -4.2799, -1.3843213, 0.6713068, 0.17150758, 0.628506, 0.16192019
1566316277940, 7.917657, 6.4976883, -4.3397756, -1.2789404, 0.6381583, 0.13528858, 0.60080916, 0.16724652
1566316277941, 7.8587165, 6.327642, -4.4403663, -1.4154567, 0.63100535, 0.08522116, 0.5933523, 0.19707392
1566316277950, 7.70128, 6.128855, -4.4379716, -1.4322218, 0.61700153, 0.034088463, 0.5752428, 0.22050974
1566316277952, 7.6557007, 6.0043144, -4.512217, -1.4825171, 0.65230465, -0.014913702, 0.5933523, 0.27057716
1566316277960, 7.431378, 5.6857767, -4.5457473, -1.4944923, 0.69652826, -0.0628506, 0.61678815, 0.3174488
1566316277962, 7.242428, 5.5061502, -4.5074267, -1.3483961, 0.74564475, -0.10546118, 0.62744075, 0.3888215
1566316277975, 7.209261, 5.388794, -4.605623, -1.3124708, 0.81904566, -0.14594123, 0.6593987, 0.46339005
1566316277978, 7.0715528, 5.2810183, -4.5529323, -1.1783496, 0.88025016, -0.17789917, 0.6828345, 0.52624065
1566316277980, 7.028444, 5.3169436, -4.478687, -1.0346485, 0.9360329, -0.19387813, 0.6892261, 0.60293967
1566316277983, 6.957305, 5.3097587, -4.414021, -0.852627, 0.9808911, -0.2130529, 0.6860303, 0.6679208
1566316277993, 6.9295053, 5.374424, -4.3349857, -0.5843848, 1.0144635, -0.22796659, 0.6668556, 0.72970617
1566316277995, 7.1183476, 5.616321, -4.3469605, -0.48139894, 1.033257, -0.22690132, 0.6348976, 0.78296936
1566316278002, 7.4244466, 5.9372535, -4.4499464, -0.26345217, 1.0494418, -0.22583607, 0.5954828, 0.8341021
1566316278004, 7.8212104, 6.2893214, -4.646338, -0.16525635, 1.0480989, -0.21731395, 0.5368933, 0.87351686
1566316278011, 8.300023, 6.69408, -4.905, -0.14370118, 1.0553615, -0.2034655, 0.48682585, 0.9139969
1566316278013, 8.827628, 7.096443, -5.249883, -0.07903565, 1.0500509, -0.20026971, 0.43782368, 0.9331717
1566316278024, 9.41245, 7.563472, -5.601951, -0.07903565, 1.0546634, -0.16192019, 0.39840892, 0.96299905
1566316278026, 9.920585, 8.0305, -5.824688, -0.045505375, 1.038564, -0.13315806, 0.3568636, 0.96619487
1566316278032, 10.441613, 8.485555, -6.0833497, 0.12454102, 1.0462459, -0.083090626, 0.3323625, 0.98856544
1566316278034, 10.775618, 8.696317, -6.361172, 0.15328126, 1.0453855, -0.039414786, 0.294013, 1.0024139
1566316278042, 11.110926, 9.024434, -6.476133, 0.2682422, 1.0538993, -0.004261058, 0.2790993, 1.0162623
1566316278044, 11.456776, 9.316627, -6.6653395, 0.17723145, 1.0597502, 0.0479369, 0.27377295, 1.0226538
1566316278051, 11.749088, 9.541759, -6.854546, 0.10538086, 1.0520644, 0.07989483, 0.22903186, 1.0237192
1566316278053, 12.136454, 9.862691, -7.072493, -0.026345216, 1.0614396, 0.11930962, 0.221575, 1.031176
1566316278061, 12.203418, 9.977652, -7.0245924, -0.1580713, 1.0752635, 0.12996227, 0.20133498, 1.0482203
1566316278063, 12.45713, 10.248289, -7.072493, -0.364043, 1.0652788, 0.13741912, 0.15446335, 1.0450244
1566316278071, 12.487452, 10.408755, -6.8904715, -0.34009278, 1.0498601, 0.13848437, 0.10439592, 1.0354371
1566316278073, 12.609334, 10.633887, -6.7611403, -0.45026368, 1.0323166, 0.13528858, 0.039414786, 1.0226538
1566316278081, 12.712663, 10.7943535, -6.68929, -0.5891748, 1.0159211, 0.12463594, -0.03195793, 1.0077401
1566316278082, 12.802281, 10.942844, -6.615044, -0.62749517, 0.98481035, 0.099069595, -0.10972224, 0.9736517
1566316278092, 13.064944, 11.225457, -6.6509695, -0.6682105, 0.97039336, 0.06924219, -0.1949434, 0.94808537
1566316278100, 13.292106, 11.54639, -6.5551686, -0.62510014, 0.9478496, 0.046871636, -0.28655612, 0.902279
1566316278101, 13.671703, 11.975099, -6.5719337, -0.5676197, 0.9233631, 0.008522116, -0.38456047, 0.83942837
1566316278103, 14.112022, 12.442127, -6.6365995, -0.5460645, 0.9061275, -0.037284255, -0.4910869, 0.76059884
1566316278116, 14.57426, 12.887601, -6.792276, -0.42870852, 0.8820325, -0.0777643, -0.572047, 0.6668556
1566316278117, 15.116259, 13.34505, -7.072493, -0.62510014, 0.86726004, -0.13209279, -0.6402239, 0.5699165
1566316278124, 15.663716, 13.766573, -7.438931, -0.7041358, 0.8404248, -0.1736381, -0.6892261, 0.44847634
1566316278125, 15.941958, 13.98452, -7.6281376, -0.62510014, 0.8149997, -0.23222765, -0.7094661, 0.3270362
1566316278135, 16.291111, 14.269527, -7.8365045, -0.60833496, 0.7781609, -0.28549087, -0.69774824, 0.19281286
1566316278137, 16.441462, 14.341377, -8.020921, -0.55803955, 0.7600369, -0.33768883, -0.6764429, 0.0777643
1566316278144, 16.353313, 14.238392, -8.032896, -0.4143384, 0.7276255, -0.36645097, -0.62744075, -0.03834952
1566316278145, 16.402798, 14.279107, -8.071217, -0.119750984, 0.7296004, -0.40053943, -0.58909124, -0.15765914
1566316278153, 16.286314, 14.116245, -8.121511, 0.12933107, 0.7384565, -0.4250405, -0.55287224, -0.2428803
1566316278154, 16.185986, 13.97015, -8.164622, 0.39996827, 0.7524862, -0.44208476, -0.50813115, -0.3355583
1566316278163, 16.238811, 13.927039, -8.339458, 0.43589357, 0.76676697, -0.44847634, -0.45699844, -0.42184472
1566316278165, 16.181463, 13.766573, -8.473579, 0.7209009, 0.77270085, -0.4346279, -0.39414784, -0.5028048
1566316278174, 16.091633, 13.570181, -8.59333, 0.97237796, 0.79063076, -0.4282363, -0.3291667, -0.5773733
1566316278176, 15.866113, 13.280384, -8.602911, 1.1639795, 0.78655845, -0.3930826, -0.257794, -0.6306366
1566316278185, 15.5230665, 12.940291, -8.456815, 1.4130616, 0.80786806, -0.3536678, -0.18642128, -0.70200926
1566316278188, 15.037895, 12.549903, -8.102351, 1.7292042, 0.80143297, -0.29614353, -0.13209279, -0.73290193
1566316278194, 14.595673, 12.183465, -7.7694435, 2.0573218, 0.8017791, -0.23222765, -0.09374327, -0.7616641
1566316278196, 14.219246, 11.833792, -7.558682, 2.2393434, 0.8421258, -0.16192019, -0.09161274, -0.8213189
1566316278204, 13.9980955, 11.740386, -7.223379, 2.435735, 0.8719442, -0.08841695, -0.12357068, -0.8586032
1566316278206, 13.986407, 11.757152, -7.1323686, 2.5530908, 0.933763, -0.0127831735, -0.19068234, -0.9139969
1566316278213, 14.1148405, 11.876903, -7.199429, 2.5171657, 1.0388863, 0.054328486, -0.2790993, -0.99921805
1566316278215, 14.472394, 12.133169, -7.4652762, 2.550696, 1.1440865, 0.11930962, -0.38242993, -1.071656
1566316278223, 14.977838, 12.518767, -7.91075, 2.2441335, 1.273687, 0.18429075, -0.47191215, -1.1685951
1566316278232, 15.533261, 12.947476, -8.344249, 2.0046315, 1.4101112, 0.22583607, -0.55074173, -1.2783173
1566316278235, 15.824635, 13.060042, -8.768167, 1.7244141, 1.5289487, 0.26418558, -0.6040049, -1.3795174
1566316278236, 16.049166, 13.153448, -9.067544, 1.5304176, 1.6653682, 0.29827404, -0.6593987, -1.4998924
1566316278245, 15.983519, 12.937896, -9.278306, 1.4130616, 1.7501158, 0.33129725, -0.69348717, -1.5723304
1566316278246, 15.88804, 12.710369, -9.436378, 1.3531861, 1.8500212, 0.3568636, -0.73290193, -1.6607473
1566316278253, 15.777307, 12.475657, -9.560919, 1.3675562, 1.9171401, 0.39414784, -0.7701862, -1.7108147
1566316278255, 15.613393, 12.240946, -9.582474, 1.453777, 1.9771802, 0.43675843, -0.8117315, -1.7491642
1566316278263, 15.375479, 11.891273, -9.637559, 1.456172, 2.0480165, 0.4676511, -0.8681905, -1.7949706
1566316278264, 15.2029, 11.630216, -9.685459, 1.4346168, 2.0972223, 0.50813115, -0.9193232, -1.8152106
1566316278275, 15.093672, 11.496095, -9.685459, 1.3603711, 2.1602123, 0.5305017, -0.9864349, -1.8471686
1566316278277, 14.973942, 11.278148, -9.73815, 1.4801221, 2.212894, 0.5454154, -1.0546118, -1.8674086
1566316278283, 14.625506, 11.064991, -9.486672, 1.214275, 2.278337, 0.5550028, -1.123854, -1.9025623
1566316278285, 14.425196, 10.806329, -9.489068, 1.1256592, 2.3195992, 0.5454154, -1.1824435, -1.9196066
1566316278294, 14.278613, 10.765614, -9.326206, 1.0011182, 2.3607886, 0.52624065, -1.2399678, -1.9387813
1566316278297, 13.886811, 10.492581, -9.050779, 0.91250247, 2.404374, 0.5187838, -1.2857742, -1.9643476
1566316278304, 13.612355, 10.30098, -8.856783, 0.86220706, 2.43908, 0.49002165, -1.3145363, -1.9952403
1566316278307, 13.476744, 10.265054, -8.698711, 0.76401126, 2.4705489, 0.45486793, -1.3464943, -2.0208068
1566316278316, 13.106466, 10.049502, -8.375383, 0.79993653, 2.5120738, 0.43675843, -1.3741912, -2.0570257
1566316278318, 12.891208, 9.855506, -8.274793, 0.76161623, 2.543556, 0.4016047, -1.3848438, -2.0953753
1566316278325, 12.681787, 9.793235, -7.9945755, 1.0035132, 2.56823, 0.36964676, -1.401888, -2.1198764
1566316278328, 12.430631, 9.596844, -7.810159, 1.1927198, 2.616103, 0.35579833, -1.4189322, -2.1688783
1566316278337, 12.192154, 9.357342, -7.688013, 1.4082716, 2.6573975, 0.35153726, -1.442368, -2.2040322
1566316278339, 12.058505, 9.19927, -7.6257424, 1.6214283, 2.6916816, 0.34301516, -1.4455639, -2.2445123
1566316278344, 11.873712, 9.125025, -7.3694754, 1.8465601, 2.7335248, 0.3717773, -1.4434333, -2.2913837
1566316278345, 11.758559, 9.050779, -7.206614, 2.1004322, 2.7673886, 0.39734364, -1.4466292, -2.3254724
1566316278354, 11.669309, 8.940608, -7.1563187, 2.2417383, 2.8074253, 0.4346279, -1.4508902, -2.3638217
1566316278356, 11.472626, 8.849598, -6.9216065, 2.323169, 2.8417974, 0.46871635, -1.4317155, -2.4096282
1566316278364, 11.273154, 8.657996, -6.825806, 2.3519094, 2.872319, 0.49747851, -1.4104102, -2.4522388
1566316278366, 11.099499, 8.54543, -6.69408, 2.315984, 2.9029899, 0.53795856, -1.3891048, -2.4916537
1566316278375, 10.918693, 8.363408, -6.6653395, 2.201023, 2.927722, 0.56459016, -1.3528858, -2.534264
1566316278380, 10.776901, 8.253238, -6.586304, 2.1555176, 2.9618394, 0.5933523, -1.3113406, -2.5885925
1566316278384, 10.552574, 8.133487, -6.4330225, 1.954336, 2.9749432, 0.60293967, -1.2548815, -2.6290727
1566316278385, 10.380566, 7.95865, -6.4138627, 1.8106349, 2.9879158, 0.6114618, -1.1899004, -2.6716833
1566316278399, 10.137628, 7.7790236, -6.3012967, 1.5974782, 2.999247, 0.6125271, -1.1270498, -2.711098
1566316278400, 10.003586, 7.6257424, -6.2893214, 1.5376027, 3.0043876, 0.60507023, -1.0407634, -2.7526433
1566316278409, 9.811084, 7.441326, -6.2677665, 1.2645704, 3.015273, 0.5901565, -0.9736517, -2.7920582
1566316278410, 9.605699, 7.3311553, -6.09293, 1.1831397, 3.0152662, 0.57417756, -0.8905611, -2.8229508
1566316278417, 9.489745, 7.089258, -6.2270513, 1.0106983, 3.0124304, 0.5571333, -0.8064052, -2.8485172
1566316278418, 9.36664, 6.981482, -6.1791506, 0.90052736, 3.0052223, 0.5305017, -0.7254451, -2.867692
1566316278425, 9.2854395, 6.837781, -6.2342362, 0.77359134, 2.9814062, 0.50173956, -0.64768076, -2.8666267
1566316278426, 9.166001, 6.6749196, -6.2438164, 0.68976563, 2.9726477, 0.46339005, -0.5752428, -2.8794098
1566316278435, 9.111512, 6.5551686, -6.3060865, 0.53169435, 2.9592645, 0.4314321, -0.49321744, -2.8858013
1566316278436, 9.113848, 6.466553, -6.4090724, 0.41194338, 2.9371474, 0.39734364, -0.42184472, -2.8794098
1566316278445, 9.108439, 6.4186525, -6.454578, 0.32093263, 2.9137084, 0.38136467, -0.3472762, -2.867692
1566316278447, 9.050389, 6.3012967, -6.488108, 0.3281177, 2.915115, 0.34621096, -0.28442562, -2.880475
1566316278458, 9.00514, 6.1695704, -6.557564, 0.16525635, 2.8891957, 0.30786142, -0.23116238, -2.863431
1566316278459, 9.00497, 6.085745, -6.6365995, 0.09340577, 2.8719945, 0.26525086, -0.18322548, -2.8538435
1566316278469, 8.914464, 5.910908, -6.672525, 0.07903565, 2.8632417, 0.21944448, -0.13315806, -2.851713
1566316278471, 8.84407, 5.831873, -6.6485744, -0.05748047, 2.8486488, 0.18322548, -0.098004326, -2.8410604
1566316278478, 8.839943, 5.745652, -6.71803, -0.011975098, 2.8338943, 0.14274544, -0.07350325, -2.8293424
1566316278480, 8.760009, 5.611531, -6.725215, -0.14130616, 2.8121572, 0.094808534, -0.046871636, -2.8101676
1566316278489, 8.863743, 5.5372853, -6.919212, -0.17004639, 2.7991898, 0.058589544, -0.026631612, -2.7984498
1566316278491, 8.797605, 5.4750147, -6.8832865, -0.20597169, 2.7750516, 0.013848438, -0.004261058, -2.775014
1566316278496, 8.670207, 5.252278, -6.8952613, -0.20357667, 2.7517524, -0.023435818, 0.020240024, -2.751578
1566316278499, 8.689094, 5.108577, -7.0269876, -0.15567628, 2.7227414, -0.06711166, 0.029827405, -2.7217507
1566316278506, 8.587976, 5.017566, -6.967112, -0.19160157, 2.7095404, -0.10865697, 0.053263225, -2.706837
1566316278513, 8.534313, 4.878655, -7.0006423, -0.15567628, 2.6651585, -0.15020229, 0.07137272, -2.6599653
1566316278516, 8.471343, 4.6726832, -7.065308, -0.10538086, 2.6490679, -0.17576863, 0.08522116, -2.641856
1566316278519, 8.263799, 4.488267, -6.9383717, -0.06945557, 2.6015313, -0.21518342, 0.099069595, -2.590723
1566316278531, 8.061397, 4.2296047, -6.861731, -0.11496094, 2.5464668, -0.23861924, 0.10226539, -2.5331988
1566316278533, 7.8809185, 3.9469924, -6.821016, 0.06227051, 2.4985876, -0.27483824, 0.10972224, -2.481001
1566316278537, 7.7860203, 3.8176613, -6.7850904, -0.100590825, 2.4503744, -0.3089267, 0.099069595, -2.428803
1566316278539, 7.6121416, 3.5110989, -6.7539554, 0.031135255, 2.4018302, -0.34088463, 0.096939065, -2.3755398
1566316278548, 7.564218, 3.3745828, -6.7659307, -0.22752686, 2.3085048, -0.3930826, 0.083090626, -2.2732744
1566316278550, 7.672468, 3.3793726, -6.8808913, -0.3161426, 2.2501638, -0.4293016, 0.084155895, -2.207228
1566316278557, 7.715606, 3.2141163, -7.0054326, -0.3520679, 2.1689878, -0.48469532, 0.08522116, -2.1124194
1566316278559, 7.7442513, 3.1997461, -7.0437527, -0.34727785, 2.1068335, -0.53263223, 0.080960095, -2.0367856
1566316278571, 7.773673, 3.1231055, -7.0988383, -0.53169435, 2.0399206, -0.5954828, 0.07989483, -1.9494339
1566316278574, 7.895321, 2.9937747, -7.288045, -0.50774413, 1.9547614, -0.6530071, 0.07882957, -1.8407769
1566316278578, 7.977973, 3.027305, -7.3622904, -0.5292993, 1.8670187, -0.7126619, 0.084155895, -1.7235979
1566316278580, 8.045989, 2.9099488, -7.455696, -0.8262818, 1.7933072, -0.78723043, 0.09374327, -1.6085494
1566316278593, 8.24258, 2.8907888, -7.673643, -0.83586186, 1.713747, -0.8543421, 0.10652645, -1.4817829
1566316278596, 8.310664, 2.8836036, -7.719148, -1.0801538, 1.6354232, -0.93423694, 0.12037488, -1.3369069
1566316278599, 8.425406, 2.792593, -7.8724294, -1.101709, 1.5810653, -1.0173275, 0.1257012, -1.2037488
1566316278601, 8.508961, 2.6129665, -8.013736, -1.1639795, 1.5444403, -1.1100056, 0.1587244, -1.0620687
1566316278609, 8.415015, 2.5004005, -7.937095, -1.2502003, 1.5202044, -1.2112057, 0.16724652, -0.9033443
1566316278611, 8.345911, 2.208208, -7.94428, -1.2909156, 1.5107099, -1.3113406, 0.19068234, -0.7254451
1566316278618, 8.191673, 2.0621119, -7.831714, -1.2310401, 1.5193785, -1.4029533, 0.19813919, -0.5486112
1566316278620, 8.128996, 1.7914747, -7.8508744, -1.1112891, 1.5710185, -1.5190672, 0.18216023, -0.3568636
1566316278628, 7.9288983, 1.6741188, -7.690408, -0.96040285, 1.6260965, -1.6117451, 0.15765914, -0.1470065
1566316278630, 7.803791, 1.5232325, -7.606582, -0.847837, 1.7183944, -1.7129452, 0.12144015, 0.0628506
1566316278637, 7.755943, 1.5208374, -7.589817, -0.48618898, 1.8111595, -1.7875137, 0.07350325, 0.28229508
1566316278639, 7.857546, 1.5591577, -7.695198, -0.3065625, 1.9142355, -1.8503643, 0.018109497, 0.49002165
1566316278648, 8.219017, 1.947151, -7.9849954, 0.026345216, 2.02396, -1.9004318, -0.029827405, 0.6956177
1566316278649, 8.589042, 2.4261549, -8.234077, 0.2921924, 2.1566966, -1.9473034, -0.049002163, 0.9257148
1566316278657, 9.187259, 2.9698243, -8.672366, 0.613125, 2.2578545, -1.9611518, -0.05539375, 1.1174624
1566316278664, 9.67148, 3.3865578, -9.019644, 0.84544194, 2.3585796, -1.9590213, -0.05219796, 1.3124058
1566316278670, 9.950886, 3.65959, -9.189691, 1.0849439, 2.4524844, -1.9419771, -0.010652645, 1.4977618
1566316278671, 10.200865, 3.8511915, -9.326206, 1.4992822, 2.5443532, -1.8993665, 0.029827405, 1.6927053
1566316278682, 10.265922, 4.026028, -9.271121, 1.7962648, 2.6287162, -1.845038, 0.053263225, 1.8716697
1566316278683, 10.299579, 4.1218286, -9.17053, 2.2345533, 2.7143292, -1.7704695, 0.0777643, 2.0559604
1566316278692, 10.54005, 4.351751, -9.220825, 2.6704469, 2.7961314, -1.6809874, 0.08522116, 2.2327943
1566316278693, 10.927194, 4.88584, -9.314231, 2.9626393, 2.868728, -1.567004, 0.09374327, 2.401106
1566316278703, 11.414094, 5.3049684, -9.592053, 3.182981, 2.958025, -1.4604776, 0.12250541, 2.569418
1566316278705, 11.760224, 5.575606, -9.872271, 3.1231055, 3.0441794, -1.3347764, 0.1587244, 2.731338
1566316278709, 12.044166, 5.9228835, -9.984837, 3.2069314, 3.11911, -1.2175972, 0.20240025, 2.8644962
1566316278711, 12.048514, 6.090535, -9.903406, 3.1614258, 3.212397, -1.0982877, 0.23861924, 3.009372
1566316278721, 11.921367, 6.1863356, -9.685459, 3.168611, 3.3002968, -0.98430437, 0.2727077, 3.1382692
1566316278723, 11.708738, 6.224656, -9.417217, 3.1087356, 3.398782, -0.87564737, 0.2876214, 3.2714272
1566316278730, 11.64347, 6.449788, -9.15137, 3.1973512, 3.491218, -0.7637946, 0.294013, 3.3939326
1566316278732, 11.587138, 6.70845, -8.919053, 3.1159205, 3.5821812, -0.65726817, 0.29507825, 3.5089812
1566316278740, 11.785377, 7.175479, -8.849598, 3.0153298, 3.6543608, -0.5581986, 0.28016454, 3.6005938
1566316278742, 12.219124, 7.781419, -8.952583, 2.9338992, 3.7241623, -0.44741106, 0.2759035, 3.6868804
1566316278750, 12.640873, 8.418494, -8.993299, 2.8357031, 3.7501924, -0.36112466, 0.26844665, 3.7230992
1566316278752, 13.113062, 9.053174, -9.08431, 2.7327175, 3.7655134, -0.25672874, 0.26205507, 3.7476003
1566316278759, 13.755383, 9.81958, -9.230406, 2.7542725, 3.775418, -0.14913702, 0.2428803, 3.7646446
1566316278761, 14.232632, 10.41115, -9.304651, 2.7566676, 3.7494302, -0.039414786, 0.24501082, 3.7412088
1566316278769, 14.685005, 11.0051155, -9.369317, 2.5985963, 3.7215722, 0.06711166, 0.23542345, 3.713512
1566316278772, 15.130083, 11.496095, -9.515413, 2.4932153, 3.6867087, 0.18535602, 0.24181503, 3.674097
1566316278779, 15.466898, 11.970308, -9.465117, 2.5195606, 3.6488838, 0.3089267, 0.23329292, 3.6282907
1566316278784, 15.7839575, 12.317586, -9.5489435, 2.4956105, 3.60208, 0.4282363, 0.23755397, 3.568636
1566316278790, 16.016079, 12.628939, -9.541759, 2.4453151, 3.5729475, 0.5581986, 0.20985709, 3.5228295
1566316278792, 16.232134, 12.906761, -9.560919, 2.3423293, 3.512366, 0.6743124, 0.18855181, 3.4418695
1566316278800, 16.411213, 13.208533, -9.486672, 2.2058132, 3.4600618, 0.79042625, 0.15126756, 3.3651705
1566316278802, 16.449366, 13.292359, -9.474698, 2.0309765, 3.4058628, 0.8990832, 0.111852765, 3.283145
1566316278813, 16.576515, 13.43606, -9.529783, 1.8537452, 3.356409, 1.0088054, 0.08628642, 3.2000544
1566316278815, 16.541117, 13.481565, -9.436378, 1.6765138, 3.3068228, 1.0950918, 0.02130529, 3.1201596
1566316278820, 16.390518, 13.44085, -9.254355, 1.5328126, 3.2572477, 1.1739215, -0.036218993, 3.0381343
1566316278822, 16.132364, 13.301939, -9.031619, 1.3196558, 3.2010384, 1.2474247, -0.09267801, 2.9465215
1566316278833, 15.887344, 13.1366825, -8.873548, 1.0466236, 3.137156, 1.2879047, -0.14274544, 2.8570392
1566316278835, 15.636639, 13.004956, -8.655601, 0.67539555, 3.0938046, 1.3337111, -0.19707392, 2.7846012
1566316278843, 15.109222, 12.624148, -8.289163, 0.45744875, 3.0268078, 1.3518206, -0.2428803, 2.6972497
1566316278845, 14.51102, 12.22418, -7.814949, 0.2562671, 2.9733899, 1.3603427, -0.28016454, 2.6290727
1566316278851, 13.91834, 11.814631, -7.3575, -0.043110352, 2.909957, 1.3582122, -0.30360037, 2.5555694
1566316278853, 13.277312, 11.352393, -6.8832865, -0.17483643, 2.8694866, 1.3475596, -0.34514567, 2.509763
1566316278861, 12.693419, 10.971585, -6.3803325, -0.19639161, 2.8163145, 1.3305153, -0.37071204, 2.4543693
1566316278863, 12.199748, 10.583591, -6.0665846, -0.1341211, 2.7591136, 1.3134711, -0.39095205, 2.3947146
1566316278871, 11.8995285, 10.485396, -5.623506, -0.17723145, 2.704177, 1.2985574, -0.4048005, 2.3371902
1566316278873, 11.603913, 10.324929, -5.295388, -0.07424561, 2.6559637, 1.3092101, -0.43782368, 2.2690134
1566316278883, 11.456423, 10.267449, -5.0822315, -0.0071850587, 2.6006625, 1.3017532, -0.4165184, 2.2125542
1566316278887, 11.159587, 10.097403, -4.749324, 0.15088624, 2.5406585, 1.3124058, -0.42397526, 2.1337247
1566316278891, 11.098529, 10.116563, -4.5577226, 0.244292, 2.4706373, 1.3326459, -0.41864893, 2.0378509
1566316278894, 10.9852295, 10.090218, -4.3349857, 0.26584718, 2.3926363, 1.3507553, -0.3920173, 1.9355855
1566316278901, 10.938625, 10.123748, -4.126619, 0.366438, 2.317873, 1.3773869, -0.34940675, 1.8311896
1566316278903, 10.823389, 10.056687, -3.9948928, 0.22273682, 2.2370996, 1.3954965, -0.3121225, 1.7204021
1566316278911, 10.889203, 10.205178, -3.7985013, 0.021555176, 2.1447036, 1.3965617, -0.25566345, 1.6074841
1566316278913, 10.700597, 10.056687, -3.652405, -0.16046631, 2.0388274, 1.3965617, -0.18109496, 1.474326
1566316278921, 10.601763, 9.992022, -3.5063088, -0.5125342, 1.9207743, 1.3635385, -0.10652645, 1.3486248
1566316278923, 10.471693, 9.884246, -3.3602126, -0.8167017, 1.8209648, 1.3401027, -0.03089267, 1.2325109
1566316278931, 10.307554, 9.690249, -3.3266823, -1.1304493, 1.6885047, 1.2783173, 0.060720075, 1.1014835
1566316278932, 10.374936, 9.659114, -3.417693, -1.6310084, 1.5692405, 1.2080098, 0.15446335, 0.9896307
1566316278945, 10.269503, 9.510623, -3.3889527, -1.8776954, 1.451311, 1.1206582, 0.26205507, 0.8841695
1566316278947, 10.255807, 9.374106, -3.4608033, -2.308799, 1.3362374, 1.0141318, 0.37284255, 0.7861652
1566316278953, 10.185415, 9.1849, -3.5829494, -2.5578809, 1.2356333, 0.9033443, 0.49002165, 0.6860303
1566316278954, 9.99624, 8.926238, -3.5637891, -2.7470875, 1.1537606, 0.78296936, 0.5965481, 0.6018744
1566316278965, 9.793131, 8.614885, -3.6380348, -2.907554, 1.1088114, 0.6625945, 0.6945524, 0.5550028
1566316278967, 9.508411, 8.226892, -3.6907253, -3.0177248, 1.085701, 0.52624065, 0.8042747, 0.5049353
1566316278973, 9.277482, 7.805369, -3.906277, -3.1446607, 1.1048893, 0.40373522, 0.90654004, 0.4857606
1566316278975, 9.059138, 7.5227566, -3.9613624, -3.1278956, 1.134315, 0.27164245, 0.99708754, 0.4676511
1566316278985, 8.735048, 7.175479, -4.0787187, -2.8596535, 1.1904873, 0.15978967, 1.0844392, 0.4644553
1566316278987, 8.60694, 7.031778, -4.169729, -2.692002, 1.2304786, 0.04580637, 1.139833, 0.4612595
1566316278993, 8.405686, 6.792276, -4.3086405, -2.440525, 1.2704403, -0.046871636, 1.1781825, 0.47297743
1566316278995, 8.324254, 6.7228203, -4.3421707, -2.2896388, 1.2995328, -0.13635385, 1.196292, 0.4889564
1566316279005, 8.210876, 6.5479836, -4.497847, -2.076482, 1.3219794, -0.21198763, 1.2058793, 0.49854377
1566316279008, 8.194645, 6.5144534, -4.591253, -1.9064356, 1.3337984, -0.27057716, 1.196292, 0.52411014
1566316279012, 8.051273, 6.368357, -4.641548, -1.6501685, 1.3477157, -0.33662358, 1.1845741, 0.5475459
1566316279015, 8.171867, 6.447393, -4.782854, -1.5280225, 1.3613704, -0.38775626, 1.1749867, 0.567786
1566316279026, 8.120838, 6.349197, -4.8427296, -1.477727, 1.3765678, -0.44101948, 1.1590078, 0.59761333
1566316279029, 8.055123, 6.2677665, -4.878655, -1.341211, 1.3807808, -0.48043427, 1.128115, 0.6348976
1566316279033, 7.9567738, 6.119275, -4.9433208, -1.1951149, 1.4072579, -0.5251754, 1.1121361, 0.68389976
1566316279035, 7.9617105, 6.0761647, -5.0367265, -1.0490186, 1.4145601, -0.5400891, 1.0833739, 0.7318367
1566316279043, 8.004035, 6.11209, -5.101392, -0.8262818, 1.4319493, -0.5603291, 1.0599382, 0.78296936
1566316279053, 8.050478, 6.1384354, -5.1804276, -0.5412744, 1.4425459, -0.551807, 1.0247844, 0.8522116
1566316279060, 8.178912, 6.212681, -5.3169436, -0.16525635, 1.4400346, -0.5411543, 0.9683254, 0.91825795
1566316279062, 8.48211, 6.5384035, -5.4031644, 0.035925295, 1.4062867, -0.5123922, 0.9012137, 0.9502159
1566316279065, 8.71638, 6.72761, -5.5301003, 0.364043, 1.3831358, -0.46552056, 0.8277105, 1.0056096
1566316279067, 9.02803, 7.065308, -5.601951, 0.4526587, 1.3511022, -0.4293016, 0.7499462, 1.0386329
1566316279075, 9.403821, 7.448511, -5.721702, 0.4622388, 1.3259826, -0.38562572, 0.680704, 1.0705907
1566316279078, 9.83912, 7.9155397, -5.829478, 0.41194338, 1.3102151, -0.36645097, 0.63383234, 1.0865698
1566316279084, 10.385029, 8.425679, -6.0689797, 0.15567628, 1.3065846, -0.36005938, 0.60933125, 1.0982877
1566316279087, 10.783364, 8.770562, -6.2725563, -0.11496094, 1.2930701, -0.3568636, 0.5837649, 1.0972224
1566316279094, 11.163474, 9.108259, -6.4354177, -0.4981641, 1.3110778, -0.3749731, 0.6061355, 1.1004182
1566316279096, 11.364474, 9.2256155, -6.595884, -0.73048097, 1.325861, -0.38775626, 0.6146576, 1.1089402
1566316279105, 11.814946, 9.527389, -6.940767, -0.8047266, 1.3657779, -0.4165184, 0.6530071, 1.1249193
1566316279108, 12.033847, 9.718989, -7.0365677, -0.91729254, 1.4058238, -0.4346279, 0.69348717, 1.1430287
1566316279115, 12.355556, 10.035132, -7.1706886, -0.732876, 1.4261202, -0.4527374, 0.7073356, 1.1526161
1566316279118, 12.522201, 10.176438, -7.2688847, -0.6394702, 1.4611962, -0.47617322, 0.74675035, 1.1622036
1566316279125, 12.779205, 10.451866, -7.34313, -0.38080812, 1.47684, -0.46978164, 0.753142, 1.180313
1566316279128, 12.819426, 10.588382, -7.220984, -0.28500733, 1.4787487, -0.45806372, 0.757403, 1.1845741
1566316279135, 12.947206, 10.765614, -7.192244, 0.05748047, 1.4651992, -0.43995422, 0.73822826, 1.1867046
1566316279138, 12.949847, 10.844649, -7.072493, 0.2682422, 1.4482163, -0.4250405, 0.7094661, 1.1888351
1566316279144, 13.048234, 11.00751, -6.998247, 0.34009278, 1.393997, -0.38029942, 0.66365975, 1.1653993
1566316279147, 13.118589, 11.213482, -6.7874856, 0.5340894, 1.3508554, -0.3653857, 0.6103965, 1.1483551
1566316279154, 13.282349, 11.496095, -6.605464, 0.7927515, 1.2792199, -0.33129725, 0.5294364, 1.1163971
1566316279157, 13.5344925, 11.817027, -6.543194, 0.852627, 1.1981251, -0.30786142, 0.45380265, 1.0652645
1566316279163, 13.869907, 12.262501, -6.4162574, 0.9148975, 1.0808021, -0.27057716, 0.34301516, 0.98856544
1566316279165, 14.252765, 12.672049, -6.456973, 0.9316626, 0.94005644, -0.24927188, 0.23009712, 0.8767126
1566316279174, 14.870802, 13.280384, -6.6437845, 0.7951465, 0.8045639, -0.23542345, 0.12250541, 0.7595336
1566316279176, 15.453181, 13.809683, -6.9024467, 0.6706055, 0.66067874, -0.23329292, 0.018109497, 0.6178534
1566316279184, 15.939656, 14.231207, -7.158714, 0.5460645, 0.5159818, -0.23222765, -0.07350325, 0.45486793
1566316279191, 16.407507, 14.568905, -7.537127, 0.38080812, 0.40510455, -0.23542345, -0.14913702, 0.294013
1566316279194, 16.570845, 14.695841, -7.6520877, 0.26584718, 0.33291858, -0.24181503, -0.18216023, 0.13848437
1566316279195, 16.708778, 14.772481, -7.8029737, 0.26584718, 0.33712548, -0.24181503, -0.23435818, -0.015978966
1566316279208, 16.597483, 14.578485, -7.917935, 0.5005591, 0.4015736, -0.24181503, -0.2695119, -0.1736381
1566316279209, 16.49838, 14.429994, -7.9730206, 0.6346802, 0.48252365, -0.21944448, -0.31638354, -0.2908172
1566316279218, 16.2963, 14.149776, -8.047266, 0.7711963, 0.5884533, -0.19920446, -0.36964676, -0.41225734
1566316279219, 16.193798, 13.97015, -8.135881, 0.9388477, 0.67967963, -0.16937704, -0.41971418, -0.5070659
1566316279228, 16.095528, 13.723462, -8.341853, 1.0705738, 0.7570696, -0.1470065, -0.4644553, -0.5795039
1566316279231, 16.108616, 13.589341, -8.586145, 1.0466236, 0.83696574, -0.12357068, -0.50600064, -0.65513766
1566316279235, 15.981466, 13.37379, -8.698711, 0.9388477, 0.871635, -0.099069595, -0.49960902, -0.7073356
1566316279238, 15.772957, 13.019327, -8.866363, 0.81909674, 0.878384, -0.07669904, -0.46978164, -0.73822826
1566316279248, 15.344, 12.557088, -8.780142, 0.8167017, 0.8657271, -0.0479369, -0.4261058, -0.7520767
1566316279250, 14.926109, 12.214601, -8.52627, 0.94603276, 0.8667359, -0.03089267, -0.39840892, -0.76912093
1566316279255, 14.491537, 11.929593, -8.169412, 0.974773, 0.86279976, 0.0, -0.3930826, -0.7680557
1566316279258, 14.2020035, 11.778707, -7.8700347, 1.0106983, 0.8852989, 0.0063915867, -0.40906155, -0.7850999
1566316279268, 14.121255, 11.795472, -7.695198, 1.0298585, 0.9327192, 0.010652645, -0.45167214, -0.8159926
1566316279270, 14.281227, 11.970308, -7.726333, 0.98435307, 0.99388033, 0.014913702, -0.49854377, -0.85966843
