TimeStamp(epoch),mAccelerometerMagnitude(m/s^2),mAccelerometerX(m/s^2),mAccelerometerY(m/s^2),mAccelerometerZ(m/s^2),mGyroscopeMagnitude(rad/s),mGyroscopeX(rad/s),mGyroscopeY(rad/s),mGyroscopeZ(rad/s) 
1565633160708, 9.056418, 5.295388, -6.8952613, -2.5363257, 0.4490238, 0.4250405, -0.14168017, 0.029827405
1565633160717, 8.443428, 4.7325587, -6.351592, -2.924319, 0.38035312, 0.37284255, -0.07243799, 0.020240024
1565633160717, 8.018629, 4.045188, -6.1887307, -3.1039455, 0.30984733, 0.30679616, -0.018109497, 0.039414786
1565633160726, 7.9039025, 3.6955154, -6.1504107, -3.3147073, 0.25945476, 0.2514024, 0.04261058, 0.0479369
1565633160726, 7.973655, 3.5901344, -6.1384354, -3.6068995, 0.21328712, 0.17257284, 0.10652645, 0.066046394
1565633160737, 7.9704247, 3.5182838, -6.200706, -3.5637891, 0.19376689, 0.10333065, 0.14807177, 0.070307456
1565633160737, 8.154053, 3.5182838, -6.4833183, -3.4751735, 0.21049151, 0.03834952, 0.19387813, 0.07243799
1565633160745, 8.269526, 3.4057178, -6.5096636, -3.796106, 0.28488007, -0.037284255, 0.27057716, 0.080960095
1565633160746, 8.1677265, 3.2045362, -6.4042826, -3.9278321, 0.34228823, -0.10652645, 0.3121225, 0.09161274
1565633160756, 8.022406, 3.0847852, -6.444998, -3.647615, 0.40436432, -0.17257284, 0.350472, 0.10439592
1565633160756, 8.047037, 3.0728102, -6.557564, -3.5087037, 0.4733611, -0.23009712, 0.3920173, 0.13209279
1565633160769, 7.8526464, 3.0009596, -6.4905033, -3.2452517, 0.52878016, -0.27483824, 0.4293016, 0.14061491
1565633160769, 7.8135633, 2.9051588, -6.564749, -3.0847852, 0.57224935, -0.3270362, 0.44528055, 0.14913702
1565633160779, 7.7990923, 2.8524685, -6.6509695, -2.907554, 0.61065674, -0.3653857, 0.46019423, 0.16618125
1565633160779, 7.8293924, 2.9099488, -6.715635, -2.7806177, 0.65720946, -0.4111921, 0.48043427, 0.17896444
1565633160788, 7.7528167, 2.9817994, -6.70366, -2.5051906, 0.68988436, -0.43356264, 0.5028048, 0.18748654
1565633160788, 7.8630743, 2.9865894, -6.8976564, -2.308799, 0.7153384, -0.4612595, 0.5070659, 0.20453078
1565633160798, 7.896818, 3.0656252, -6.947952, -2.1650977, 0.75895596, -0.49641323, 0.5305017, 0.21944448
1565633160799, 7.9792805, 3.0536501, -7.067703, -2.095642, 0.7829187, -0.5187838, 0.53795856, 0.23329292
1565633160808, 8.037847, 2.914739, -7.2497244, -1.8848804, 0.7904873, -0.53263223, 0.5251754, 0.25566345
1565633160809, 8.081085, 3.0153298, -7.2808595, -1.7890797, 0.784964, -0.54648066, 0.49428272, 0.27057716
1565633160819, 8.234008, 3.032095, -7.479646, -1.6310084, 0.7719949, -0.54648066, 0.4612595, 0.2908172
1565633160819, 8.365949, 2.9746144, -7.676038, -1.4897022, 0.74252903, -0.53795856, 0.4048005, 0.31318775
1565633160829, 8.558348, 2.9674294, -7.8915896, -1.4705421, 0.7278384, -0.5336975, 0.350472, 0.34940675
1565633160829, 8.646467, 2.9219239, -8.025711, -1.346001, 0.70555335, -0.5219796, 0.28122982, 0.38242993
1565633160839, 8.639198, 2.8692336, -8.037686, -1.341211, 0.6816402, -0.5049353, 0.19707392, 0.4133226
1565633160839, 8.6427, 2.9051588, -8.047266, -1.223855, 0.6672034, -0.479369, 0.11930962, 0.44847634
1565633160849, 8.681754, 2.9506643, -8.087981, -1.1184741, 0.67019105, -0.45699844, 0.05752428, 0.48682585
1565633160849, 8.714355, 3.0009596, -8.1071415, -1.099314, 0.67421985, -0.43569317, 0.0031957934, 0.51452273
1565633160859, 8.650938, 3.0967603, -8.004155, -1.0873389, 0.6782532, -0.3930826, -0.046871636, 0.55074173
1565633160860, 8.520399, 3.173401, -7.8556643, -0.9029224, 0.6889009, -0.36432046, -0.06924219, 0.58056915
1565633160869, 8.514193, 3.1997461, -7.829319, -0.977168, 0.69845617, -0.33449304, -0.08522116, 0.60720074
1565633160870, 8.546092, 3.3171022, -7.8029737, -1.0705738, 0.71936905, -0.30679616, -0.08948222, 0.644485
1565633160879, 8.650525, 3.5709743, -7.783814, -1.22146, 0.72445893, -0.27483824, -0.08628642, 0.664725
1565633160880, 8.768914, 3.7338357, -7.8580594, -1.096919, 0.7228312, -0.25033715, -0.080960095, 0.67324716
1565633160889, 8.9035015, 3.8799317, -7.951465, -0.9963282, 0.72021574, -0.20772657, -0.07989483, 0.6849651
1565633160890, 9.193792, 4.0116577, -8.207732, -1.0322535, 0.7081958, -0.14594123, -0.098004326, 0.6860303
1565633160897, 9.428412, 4.1864944, -8.406519, -0.83586186, 0.72030544, -0.08948222, -0.13422333, 0.70200926
1565633160898, 9.554848, 4.0906935, -8.595725, -0.8214917, 0.75743675, -0.015978966, -0.18216023, 0.7350325
1565633160910, 9.754021, 4.1625443, -8.792117, -0.7161109, 0.78854686, 0.05539375, -0.25353295, 0.74461985
1565633160911, 9.867158, 4.1625443, -8.909473, -0.8095166, 0.84799397, 0.128897, -0.32810146, 0.77125144
1565633160920, 10.160852, 4.184099, -9.204061, -1.0106983, 0.91362554, 0.18002969, -0.3898868, 0.8064052
1565633160921, 10.250691, 4.385281, -9.16095, -1.3867164, 0.9775768, 0.21518342, -0.44847634, 0.84155893
1565633160932, 10.607642, 4.641548, -9.354947, -1.8609302, 1.0299327, 0.24927188, -0.4910869, 0.87032104
1565633160933, 10.805668, 5.017566, -9.311836, -2.208208, 1.0732205, 0.2695119, -0.5091964, 0.9054748
1565633160938, 11.108597, 5.3097587, -9.4435625, -2.454895, 1.0855796, 0.2876214, -0.51026165, 0.9139969
1565633160939, 11.342656, 5.6498513, -9.429193, -2.7973828, 1.0693882, 0.26631612, -0.4910869, 0.91186637
1565633160950, 11.751249, 6.09293, -9.510623, -3.2428565, 1.0443178, 0.24927188, -0.47723848, 0.8948221
1565633160951, 11.349192, 6.1240654, -9.0076685, -3.187771, 1.0323753, 0.23116238, -0.44741106, 0.9012137
1565633160961, 12.125623, 6.8114357, -9.364527, -3.5973196, 0.96906346, 0.19387813, -0.42717105, 0.8479505
1565633160962, 12.724988, 7.446116, -9.616004, -3.7434156, 0.90008855, 0.17044231, -0.38456047, 0.7957525
1565633160970, 13.313294, 8.040081, -9.934542, -3.7290456, 0.82641315, 0.13315806, -0.36005938, 0.7318367
1565633160970, 13.357841, 8.222102, -9.81, -3.8200562, 0.7425825, 0.096939065, -0.34408042, 0.6508766
1565633160979, 13.195766, 8.301138, -9.575289, -3.67875, 0.67024523, 0.06924219, -0.3387541, 0.57417756
1565633160979, 13.421347, 8.581355, -9.726174, -3.4488282, 0.61774415, 0.049002163, -0.3334278, 0.51771855
1565633160988, 13.264997, 8.351434, -9.726174, -3.408113, 0.53771377, 0.033023197, -0.33449304, 0.41971418
1565633160989, 14.391576, 9.251961, -10.574012, -3.1159205, 0.4330808, 0.043675844, -0.30679616, 0.30253512
1565633161000, 14.874427, 9.436378, -11.081756, -3.0656252, 0.35939378, 0.058589544, -0.29188246, 0.20133498
1565633161001, 14.311674, 8.811277, -10.902129, -2.8859987, 0.34058824, 0.0628506, -0.3089267, 0.128897
1565633161009, 13.898304, 8.222102, -10.837463, -2.8476784, 0.33404663, 0.08522116, -0.3121225, 0.083090626
1565633161009, 14.045795, 8.047266, -11.153606, -2.8500733, 0.33696386, 0.08522116, -0.32277513, 0.04580637
1565633161020, 14.461264, 8.059241, -11.656561, -2.8812087, 0.31084737, 0.08735169, -0.29827404, 0.0053263223
1565633161020, 14.581994, 7.7215433, -11.994258, -3.0249097, 0.3163764, 0.09054748, -0.30253512, -0.01917476
1565633161031, 14.544114, 7.2928348, -12.20981, -3.04407, 0.31261474, 0.08522116, -0.30040458, -0.014913702
1565633161031, 14.673374, 7.1251836, -12.420572, -3.2045362, 0.3126692, 0.07456851, -0.30360037, 0.0053263223
1565633161039, 14.931787, 7.0006423, -12.74869, -3.3793726, 0.29963106, 0.0479369, -0.29507825, 0.020240024
1565633161040, 15.449964, 7.2425394, -13.206139, -3.4416432, 0.28694594, 0.03089267, -0.28336033, 0.033023197
1565633161050, 15.648427, 7.2976246, -13.390554, -3.5087037, 0.2682352, 0.002130529, -0.26631612, 0.03195793
1565633161050, 15.791765, 7.3862405, -13.543836, -3.3745828, 0.28321013, -0.03834952, -0.2759035, 0.051132694
1565633161058, 15.935768, 7.431746, -13.620477, -3.6332448, 0.2825663, -0.070307456, -0.26844665, 0.053263225
1565633161058, 16.00026, 7.676038, -13.606107, -3.4584084, 0.28793883, -0.111852765, -0.25992453, 0.053263225
1565633161068, 16.194897, 7.9347, -13.675562, -3.5063088, 0.29296708, -0.15020229, -0.25033715, 0.024501082
1565633161068, 16.18963, 8.270002, -13.519886, -3.3051271, 0.3006783, -0.18109496, -0.2396845, 0.0127831735
1565633161078, 16.070072, 8.408914, -13.321099, -3.175796, 0.2998677, -0.18961707, -0.23009712, -0.03195793
1565633161078, 15.753801, 8.6077, -12.882811, -2.8500733, 0.306352, -0.20026971, -0.221575, -0.068176925
1565633161087, 15.437431, 8.760982, -12.463682, -2.4932153, 0.32506627, -0.2066613, -0.21837921, -0.12357068
1565633161088, 15.186732, 8.976534, -12.015814, -2.3830445, 0.34002134, -0.19707392, -0.20879184, -0.18216023
1565633161100, 14.75891, 8.995694, -11.498489, -2.1650977, 0.36087948, -0.18109496, -0.19068234, -0.24714136
1565633161100, 14.186918, 8.947793, -10.856624, -1.8274, 0.40318677, -0.15020229, -0.17789917, -0.3291667
1565633161111, 13.868791, 9.050779, -10.399176, -1.5112574, 0.4742545, -0.12676647, -0.17576863, -0.42184472
1565633161111, 13.47533, 9.093889, -9.860296, -1.2885206, 0.55824023, -0.098004326, -0.16192019, -0.5251754
1565633161119, 13.052425, 8.966953, -9.433982, -0.97956306, 0.6570368, -0.051132694, -0.16937704, -0.6327671
1565633161119, 12.611183, 8.758587, -9.045989, -0.7065308, 0.76431966, 0.0063915867, -0.19387813, -0.7392935
1565633161130, 11.84985, 8.260423, -8.485555, -0.4239185, 0.8484141, 0.083090626, -0.2396845, -0.809601
1565633161130, 11.367394, 8.004155, -8.071217, -0.081430666, 0.9751511, 0.15446335, -0.29294774, -0.9171927
1565633161138, 10.918682, 7.678433, -7.7622585, 0.081430666, 1.0954208, 0.22690132, -0.36751625, -1.0066749
1565633161139, 10.809982, 7.429351, -7.8508744, 0.15567628, 1.2491901, 0.30786142, -0.45806372, -1.1206582
1565633161148, 10.726937, 7.1467385, -7.999366, -0.038320314, 1.3947619, 0.38029942, -0.5571333, -1.220793
1565633161148, 10.500769, 6.557564, -8.200547, -0.12454102, 1.5179806, 0.45167214, -0.6540724, -1.293231
1565633161163, 10.043363, 5.592371, -8.3322735, -0.40954837, 1.6226269, 0.49215218, -0.77125144, -1.3401027
1565633161163, 9.768387, 4.8044095, -8.466394, -0.81191164, 1.6971686, 0.51452273, -0.87138635, -1.3624732
1565633161168, 9.659819, 4.0859036, -8.674761, -1.1687696, 1.7525805, 0.5209143, -0.9715212, -1.3624732
1565633161169, 9.590697, 3.3458424, -8.847202, -1.585503, 1.7848092, 0.5230448, -1.0737866, -1.3262542
1565633161181, 9.672033, 2.7782228, -9.0891, -1.7938697, 1.8272945, 0.49747851, -1.1877699, -1.2964269
1565633161182, 9.86226, 2.311194, -9.3309965, -2.203418, 1.8583012, 0.45380265, -1.2953615, -1.252751
1565633161191, 9.9092, 1.7818946, -9.491463, -2.2201831, 1.8983554, 0.42077947, -1.4189322, -1.1888351
1565633161192, 10.07256, 1.5519727, -9.699829, -2.2273684, 1.9153736, 0.36964676, -1.5094798, -1.1195929
1565633161202, 10.167803, 1.4106666, -9.833951, -2.1650977, 1.9511842, 0.32810146, -1.6042882, -1.0610034
1565633161202, 10.195504, 1.343606, -9.908196, -1.9926564, 1.9887118, 0.27483824, -1.6948358, -1.0034791
1565633161212, 10.183924, 1.3579761, -9.901011, -1.9591261, 2.0048249, 0.22264028, -1.7598169, -0.93423694
1565633161212, 10.21872, 1.331631, -9.944121, -1.9399658, 2.0250869, 0.16618125, -1.8184065, -0.87564737
1565633161219, 10.194575, 1.463357, -9.922566, -1.8250049, 2.0211112, 0.11611383, -1.8397117, -0.82877576
1565633161219, 10.124827, 1.6765138, -9.860296, -1.5735279, 1.9981377, 0.07456851, -1.8322549, -0.793622
1565633161229, 9.968797, 1.6789087, -9.735755, -1.331631, 1.9542657, 0.03834952, -1.8077538, -0.7414241
1565633161230, 9.675757, 1.9567311, -9.426797, -0.9627979, 1.8851959, 0.002130529, -1.7470337, -0.70840085
1565633161240, 9.460684, 2.2393434, -9.16574, -0.69216067, 1.8083326, -0.024501082, -1.6703347, -0.6924219
1565633161240, 9.3433275, 2.3303542, -9.041199, -0.3520679, 1.7250937, -0.043675844, -1.587244, -0.6743124
1565633161252, 9.079866, 2.4189699, -8.751402, -0.07424561, 1.6264317, -0.053263225, -1.4839134, -0.66365975
1565633161253, 8.849271, 2.6536818, -8.440049, 0.1820215, 1.5283275, -0.053263225, -1.3720607, -0.6711166
1565633161263, 8.689913, 2.7973828, -8.2197075, 0.3544629, 1.4357145, -0.03834952, -1.2559468, -0.6945524
1565633161264, 8.4951, 2.8931837, -7.9730206, 0.4766089, 1.3431042, -0.027696876, -1.1387677, -0.71159667
1565633161273, 8.400605, 2.9410841, -7.8365045, 0.71371585, 1.2721622, 0.0031957934, -1.0375676, -0.73609775
1565633161274, 8.231366, 2.912344, -7.6496925, 0.86939216, 1.2042671, 0.02130529, -0.92464954, -0.77125144
1565633161283, 8.088234, 2.8644435, -7.5179667, 0.8334668, 1.1337566, 0.05006743, -0.8245147, -0.7765778
1565633161284, 8.086447, 2.6608667, -7.6017923, 0.7232959, 1.0838829, 0.07989483, -0.7350325, -0.79255676
1565633161293, 7.920967, 2.5339308, -7.4676714, 0.7448511, 1.0612777, 0.10333065, -0.67324716, -0.813862
1565633161294, 7.8501577, 2.4812403, -7.424561, 0.58677983, 1.027638, 0.11504856, -0.608266, -0.8202536
1565633161304, 7.775967, 2.3519094, -7.398216, 0.44786867, 0.99984366, 0.13954964, -0.5496765, -0.82344943
1565633161304, 7.6659436, 2.2585034, -7.31918, 0.30895755, 0.98095703, 0.14807177, -0.47617322, -0.8447547
1565633161314, 7.4860396, 1.9998415, -7.213799, 0.050295413, 0.9702232, 0.1587244, -0.43782368, -0.8511463
1565633161314, 7.3492208, 1.8010547, -7.1227884, -0.1820215, 0.95296943, 0.13741912, -0.40373522, -0.8522116
1565633161324, 7.1177115, 1.575923, -6.9168167, -0.57959473, 0.9222939, 0.12037488, -0.36751625, -0.83729786
1565633161324, 7.10281, 1.5280225, -6.8808913, -0.8765772, 0.88907725, 0.09267801, -0.330232, -0.8202536
1565633161334, 7.3330083, 1.6836988, -7.077283, -0.92208254, 0.86950773, 0.06711166, -0.28975195, -0.81705785
1565633161334, 7.3464127, 1.6693287, -7.055728, -1.1831397, 0.84389925, 0.046871636, -0.24074976, -0.80747044
1565633161344, 7.426735, 1.5376027, -7.1467385, -1.3100758, 0.82722014, 0.0063915867, -0.18429075, -0.8064052
1565633161345, 7.333532, 1.4346168, -7.031778, -1.5088624, 0.8198475, -0.034088463, -0.12463594, -0.809601
1565633161354, 7.318339, 1.3076807, -6.9862723, -1.7435743, 0.8089854, -0.07350325, -0.046871636, -0.8042747
1565633161355, 7.448572, 1.2669654, -7.079678, -1.9375709, 0.80267936, -0.13422333, 0.056459017, -0.78936094
1565633161364, 7.415875, 1.1304493, -7.060518, -1.9663111, 0.81414294, -0.19920446, 0.14168017, -0.7765778
1565633161365, 7.4548874, 0.9508228, -7.096443, -2.076482, 0.8349723, -0.25566345, 0.23435818, -0.7595336
1565633161375, 7.562925, 0.9364527, -7.213799, -2.069297, 0.878736, -0.314253, 0.3355583, -0.7488809
1565633161375, 7.5635896, 0.73527104, -7.2425394, -2.0525317, 0.90030223, -0.36218992, 0.41225734, -0.7137272
1565633161384, 7.6520877, 0.63707525, -7.340735, -2.064507, 0.950057, -0.42290998, 0.50600064, -0.68389976
1565633161385, 7.6526017, 0.5125342, -7.31918, -2.1746778, 0.98630023, -0.46019423, 0.5784386, -0.6530071
1565633161395, 7.6712513, 0.4143384, -7.4269557, -1.8753004, 1.0291519, -0.49854377, 0.6498113, -0.62317973
1565633161395, 7.714485, 0.3520679, -7.551497, -1.5376027, 1.0560522, -0.5187838, 0.716923, -0.5763081
1565633161405, 7.703788, 0.3544629, -7.592212, -1.2573853, 1.0705076, -0.5390238, 0.76059884, -0.52624065
1565633161405, 7.8462934, 0.39757326, -7.726333, -1.3076807, 1.0816296, -0.5496765, 0.8000136, -0.47723848
1565633161416, 7.9021516, 0.5292993, -7.814949, -1.0442286, 1.0899217, -0.5454154, 0.8319715, -0.44528055
1565633161416, 8.058378, 0.6394702, -7.9849954, -0.8765772, 1.1119019, -0.5475459, 0.87351686, -0.4165184
1565633161425, 8.236716, 0.7209009, -8.147857, -0.96758795, 1.1228322, -0.55074173, 0.9033443, -0.37603834
1565633161426, 8.343389, 0.88376224, -8.231683, -1.0346485, 1.1465913, -0.535828, 0.94595486, -0.36432046
1565633161435, 8.498088, 1.0633887, -8.377779, -0.9484278, 1.1520026, -0.5422196, 0.9598033, -0.33449304
1565633161435, 8.800062, 1.2741505, -8.660391, -0.9029224, 1.1603473, -0.54435015, 0.9800433, -0.29933932
1565633161445, 8.9265175, 1.3819263, -8.770562, -0.92208254, 1.1706374, -0.54648066, 0.9960223, -0.28229508
1565633161446, 9.121092, 1.5088624, -8.947793, -0.9244776, 1.1755685, -0.551807, 1.0024139, -0.2695119
1565633161452, 9.467272, 1.6477735, -9.259146, -1.0873389, 1.1824484, -0.55606806, 1.0130665, -0.25033715
1565633161453, 9.7502985, 1.839375, -9.524993, -0.97956306, 1.2071383, -0.56459016, 1.0396981, -0.2396845
1565633161462, 10.055262, 1.9782863, -9.79563, -1.1136842, 1.2334281, -0.5763081, 1.0652645, -0.23329292
1565633161463, 10.277869, 2.088457, -9.989627, -1.2166699, 1.2535714, -0.5837649, 1.0887003, -0.2130529
1565633161472, 10.548503, 2.095642, -10.262659, -1.2478052, 1.3154976, -0.59867865, 1.1526161, -0.20879184
1565633161473, 10.741649, 2.0046315, -10.480606, -1.2334352, 1.370398, -0.60293967, 1.2133362, -0.20559604
1565633161482, 11.118549, 2.078877, -10.854229, -1.219065, 1.4281137, -0.6103965, 1.2772521, -0.18855181
1565633161483, 11.323827, 1.9040406, -11.108101, -1.101709, 1.4878317, -0.62317973, 1.3401027, -0.17150758
1565633161493, 11.506309, 1.6070582, -11.338023, -1.1232642, 1.5336987, -0.6199839, 1.397627, -0.12037488
1565633161495, 11.459322, 1.1879297, -11.354788, -0.9867481, 1.5637422, -0.608266, 1.4391723, -0.06391586
1565633161502, 11.598501, 0.9029224, -11.553575, -0.4742139, 1.5572916, -0.5763081, 1.4466292, 0.017044231
1565633161505, 11.7588415, 0.6682105, -11.737991, -0.2083667, 1.5243505, -0.52624065, 1.4285196, 0.0777643
1565633161512, 11.884642, 0.4239185, -11.876903, 0.06466553, 1.4530305, -0.4644553, 1.3667343, 0.16618125
1565633161513, 11.924349, 0.22752686, -11.915223, 0.40715334, 1.3478706, -0.37284255, 1.2697952, 0.25566345
1565633161522, 11.952403, 0.39996827, -11.929593, 0.62031007, 1.2144029, -0.2695119, 1.1323761, 0.34621096
1565633161523, 12.06118, 0.4263135, -12.034974, 0.6706055, 1.0767289, -0.17257284, 0.9800433, 0.4111921
1565633161535, 12.3610325, 0.7879615, -12.329561, 0.39517823, 0.96788234, -0.066046394, 0.83516735, 0.48469532
1565633161536, 12.668105, 1.2621753, -12.604988, 0.045505375, 0.8915016, 0.00958738, 0.71798825, 0.52837116
1565633161545, 12.90921, 1.5184424, -12.808565, -0.53169435, 0.851003, 0.07350325, 0.6178534, 0.58056915
1565633161545, 13.260173, 1.8465601, -13.081597, -1.1376343, 0.84927833, 0.111852765, 0.55287224, 0.6348976
1565633161555, 13.563387, 2.1770728, -13.268409, -1.7818946, 0.8613274, 0.11717909, 0.5187838, 0.6775082
1565633161556, 13.781506, 2.308799, -13.371394, -2.4093897, 0.8961027, 0.101200126, 0.51771855, 0.72437984
1565633161563, 14.058691, 2.4764502, -13.51749, -2.9650342, 0.94776094, 0.06178534, 0.5273059, 0.7850999
1565633161565, 14.18924, 2.311194, -13.5869465, -3.3745828, 1.0004885, 0.015978966, 0.535828, 0.8447547
1565633161573, 14.781124, 2.8955786, -14.049185, -3.5661843, 1.0572523, -0.035153728, 0.572047, 0.88843054
1565633161574, 15.122386, 3.3314724, -14.300662, -3.6164796, 1.0897697, -0.080960095, 0.59122175, 0.91186637
1565633161585, 15.239954, 3.558999, -14.401253, -3.4919386, 1.129021, -0.11611383, 0.61678815, 0.93849796
1565633161585, 15.06711, 3.6380348, -14.264737, -3.2093263, 1.1735724, -0.13635385, 0.6359629, 0.9768475
1565633161593, 14.869177, 3.5853443, -14.121036, -2.9722195, 1.2218189, -0.13635385, 0.6306366, 1.0375676
1565633161594, 14.147196, 3.3147073, -13.493541, -2.6608667, 1.2617525, -0.13741912, 0.63383234, 1.0823087
1565633161606, 14.568725, 3.7027004, -13.900694, -2.304009, 1.2908407, -0.1257012, 0.6412892, 1.1132014
1565633161607, 14.691979, 4.176914, -13.931829, -2.076482, 1.3015217, -0.07669904, 0.65194184, 1.123854
1565633161616, 14.642831, 4.385281, -13.845609, -1.8657203, 1.305075, -0.037284255, 0.6402239, 1.1366372
1565633161616, 13.912967, 3.9733377, -13.2420635, -1.5591577, 1.3385564, 0.017044231, 0.62104917, 1.1856394
1565633161627, 13.118271, 3.5733693, -12.537928, -1.456172, 1.3720213, 0.070307456, 0.59867865, 1.2325109
1565633161627, 12.518235, 3.5613942, -11.951148, -1.092129, 1.4083225, 0.13315806, 0.5613944, 1.284709
1565633161637, 12.062404, 3.6284547, -11.4625635, -0.97237796, 1.4370059, 0.20772657, 0.5209143, 1.3230585
1565633161638, 11.641701, 3.66438, -11.00751, -0.96758795, 1.4791262, 0.27696875, 0.47191215, 1.3741912
1565633161647, 11.14534, 3.781736, -10.43031, -1.0609937, 1.4925356, 0.32810146, 0.41545314, 1.3954965
1565633161648, 10.736154, 3.9685476, -9.867481, -1.465752, 1.5116489, 0.37071204, 0.36645097, 1.4189322
1565633161656, 10.519041, 4.26553, -9.419612, -1.9303858, 1.5119174, 0.4016047, 0.30999196, 1.4242586
1565633161657, 10.381628, 4.615203, -9.031619, -2.215393, 1.4868131, 0.4111921, 0.25353295, 1.406149
1565633161666, 10.349557, 5.0439115, -8.674761, -2.5339308, 1.4422166, 0.3930826, 0.21411815, 1.3709954
1565633161667, 10.403282, 5.374424, -8.411309, -2.931504, 1.3906908, 0.38029942, 0.16618125, 1.3273195
1565633161676, 10.4600525, 5.6618266, -8.119117, -3.3817677, 1.3286461, 0.3323625, 0.13422333, 1.2793826
1565633161676, 10.63368, 5.9037232, -8.0017605, -3.767366, 1.2520235, 0.28655612, 0.10333065, 1.2144015
1565633161687, 10.692511, 6.0689797, -7.8772197, -3.9302273, 1.1778733, 0.2247708, 0.07669904, 1.1536814
1565633161688, 10.835977, 6.346802, -7.798184, -4.040398, 1.0872724, 0.1587244, 0.0628506, 1.0737866
1565633161697, 10.813254, 6.1959157, -7.8652444, -4.0835085, 1.0173839, 0.101200126, 0.053263225, 1.010936
1565633161697, 10.889627, 6.1791506, -7.9706254, -4.1074586, 0.94776094, 0.00958738, 0.036218993, 0.9470201
1565633161706, 11.082907, 6.2510014, -8.085587, -4.287085, 0.8859165, -0.04474111, 0.033023197, 0.8841695
1565633161707, 10.953886, 6.1073003, -8.076006, -4.1793094, 0.81708, -0.11504856, 0.025566347, 0.8085357
1565633161716, 10.969848, 6.095325, -8.188572, -4.016448, 0.7704639, -0.18748654, 0.02876214, 0.74675035
1565633161716, 10.863807, 6.006709, -8.339458, -3.5206788, 0.72443783, -0.23435818, 0.026631612, 0.6849651
1565633161725, 10.724014, 5.7983427, -8.392149, -3.3099172, 0.689826, -0.28122982, 0.020240024, 0.6295713
1565633161726, 10.606446, 5.750442, -8.49753, -2.687212, 0.6588202, -0.32597092, 0.023435818, 0.572047
1565633161737, 10.481233, 5.51094, -8.595725, -2.3662794, 0.64498574, -0.34408042, 0.011717909, 0.5454154
1565633161738, 10.4536085, 5.360054, -8.787327, -1.8250049, 0.6102394, -0.34514567, 0.02130529, 0.5028048
1565633161748, 10.290914, 5.206773, -8.789722, -1.2382251, 0.56870455, -0.3174488, 0.03089267, 0.4708469
1565633161749, 9.951998, 4.8379397, -8.665181, -0.7424561, 0.53318906, -0.28868666, 0.041545313, 0.4463458
1565633161758, 9.493796, 4.409231, -8.392149, -0.5125342, 0.50754344, -0.2545982, 0.054328486, 0.43569317
1565633161759, 9.748796, 4.4188113, -8.689131, -0.1101709, 0.47381404, -0.18855181, 0.068176925, 0.4293016
1565633161768, 9.728328, 4.2439747, -8.753797, 0.009580079, 0.43276095, -0.12463594, 0.098004326, 0.40266997
1565633161769, 9.645462, 4.112249, -8.722662, 0.19878663, 0.42772722, -0.06178534, 0.12357068, 0.4048005
1565633161778, 9.235305, 3.7338357, -8.4448395, 0.18441652, 0.4420873, 0.0053263223, 0.14807177, 0.4165184
1565633161779, 9.047037, 3.5182838, -8.334668, 0.06227051, 0.47646865, 0.053263225, 0.18535602, 0.43569317
1565633161788, 8.901053, 3.3338673, -8.248447, -0.2778223, 0.5121984, 0.09054748, 0.23435818, 0.4463458
1565633161789, 8.85967, 3.4871485, -8.111932, -0.728086, 0.559, 0.10652645, 0.31318775, 0.45060685
1565633161799, 8.648347, 3.412903, -7.862849, -1.1496094, 0.5994098, 0.10439592, 0.3898868, 0.44315
1565633161799, 8.603153, 3.4847536, -7.692803, -1.6405884, 0.6725498, 0.07456851, 0.4857606, 0.45912898
1565633161808, 8.37043, 3.4823585, -7.3383403, -2.0213966, 0.7295351, 0.04261058, 0.5763081, 0.44528055
1565633161809, 8.393635, 3.5110989, -7.2928348, -2.2225783, 0.81114554, -0.002130529, 0.6828345, 0.43782368
1565633161817, 8.414724, 3.5805542, -7.201824, -2.4740553, 0.8879949, -0.05965481, 0.78083885, 0.41864893
1565633161818, 8.241733, 3.5134938, -6.974297, -2.6345215, 0.9761869, -0.10865697, 0.87564737, 0.41758367
1565633161829, 8.16101, 3.5063088, -6.871311, -2.663262, 1.047911, -0.15339808, 0.9534117, 0.406931
1565633161829, 8.067783, 3.515889, -6.7324004, -2.7207422, 1.1056331, -0.21198763, 1.0130665, 0.3888215
1565633161840, 8.009422, 3.5134938, -6.6557593, -2.7399025, 1.1593904, -0.2609898, 1.0663297, 0.37284255
1565633161840, 7.8384323, 3.3602126, -6.5791187, -2.6201515, 1.2125878, -0.30999196, 1.1121361, 0.37071204
1565633161850, 7.7953205, 3.415298, -6.5623536, -2.4572902, 1.2509353, -0.34408042, 1.1504856, 0.350472
1565633161850, 7.6506763, 3.2380664, -6.4905033, -2.4333398, 1.2769109, -0.386691, 1.1611383, 0.36432046
1565633161860, 7.552953, 3.2500417, -6.478528, -2.1243825, 1.2931353, -0.42717105, 1.1707256, 0.34514567
1565633161860, 7.4998384, 3.2093263, -6.4330225, -2.1363575, 1.3095431, -0.44741106, 1.1835088, 0.33768883
1565633161870, 7.38363, 3.0536501, -6.423443, -1.9830762, 1.3167608, -0.47191215, 1.1835088, 0.3323625
1565633161871, 7.314997, 3.0752053, -6.3994923, -1.7603394, 1.3322136, -0.48149952, 1.1941614, 0.34194988
1565633161880, 7.168411, 3.0752053, -6.3060865, -1.4705421, 1.3126363, -0.4676511, 1.1781825, 0.34088463
1565633161881, 7.1649, 3.04886, -6.351592, -1.3028907, 1.2970079, -0.47510794, 1.1558119, 0.3472762
1565633161890, 7.214757, 2.926714, -6.4976883, -1.1256592, 1.2719659, -0.47510794, 1.1259845, 0.35260254
1565633161891, 7.0807323, 2.7710378, -6.4258375, -1.0801538, 1.2410337, -0.47297743, 1.087635, 0.3653857
1565633161898, 7.19118, 2.8620484, -6.5360084, -0.89573735, 1.1975495, -0.45699844, 1.0343717, 0.39414784
1565633161899, 7.234325, 2.816543, -6.615044, -0.80233157, 1.1466843, -0.43888897, 0.97897804, 0.4048005
1565633161908, 7.183407, 2.804568, -6.598279, -0.44547364, 1.0843465, -0.41438788, 0.9044095, 0.4314321
1565633161909, 7.292174, 2.8213332, -6.720425, -0.22752686, 1.0031664, -0.3717773, 0.8213189, 0.43995422
1565633161920, 7.3844485, 2.8740237, -6.8018556, -0.06945557, 0.93728083, -0.32170987, 0.74248934, 0.47297743
1565633161921, 7.5648613, 2.9698243, -6.957532, 0.0047900393, 0.86684126, -0.2759035, 0.660464, 0.4889564
1565633161931, 7.641907, 2.9913795, -7.031778, -0.06706055, 0.810333, -0.23861924, 0.572047, 0.5219796
1565633161933, 7.578203, 2.914739, -6.991062, -0.24189699, 0.76432925, -0.2066613, 0.48682585, 0.551807
1565633161940, 7.9713774, 3.3362625, -7.2281694, -0.40715334, 0.72021645, -0.18535602, 0.406931, 0.56459016
1565633161941, 8.172334, 3.4344583, -7.3766603, -0.7592212, 0.68805444, -0.16937704, 0.3355583, 0.5763081
1565633161951, 8.14778, 3.5134938, -7.311995, -0.7592212, 0.68378365, -0.1470065, 0.26844665, 0.6114618
1565633161952, 8.237771, 3.6380348, -7.350315, -0.77359134, 0.680699, -0.14807177, 0.19920446, 0.63383234
1565633161961, 8.278115, 3.7362306, -7.335945, -0.8669971, 0.669499, -0.11717909, 0.12250541, 0.64768076
1565633161962, 8.589422, 4.064348, -7.5323367, -0.7232959, 0.691451, -0.10226539, 0.053263225, 0.68176925
1565633161968, 8.139609, 3.8368216, -7.1467385, -0.67539555, 0.6940825, -0.080960095, -0.0127831735, 0.6892261
1565633161969, 8.7536955, 4.5074267, -7.460486, -0.80712163, 0.7009189, -0.053263225, -0.0777643, 0.6945524
1565633161979, 9.274511, 4.9864306, -7.793394, -0.6442603, 0.69750184, -0.0127831735, -0.13102753, 0.6849651
1565633161981, 9.7246065, 5.415139, -8.047266, -0.69695073, 0.6807873, 0.025566347, -0.17150758, 0.6583334
1565633161989, 10.008974, 5.630691, -8.234077, -0.8214917, 0.6553636, 0.049002163, -0.2034655, 0.62104917
1565633161990, 10.118366, 5.8007374, -8.224498, -1.0442286, 0.6502137, 0.06178534, -0.23542345, 0.60293967
1565633161999, 10.310545, 6.0043144, -8.305928, -1.1256592, 0.66718054, 0.07989483, -0.2695119, 0.60507023
1565633162004, 10.358036, 5.846243, -8.4376545, -1.3843213, 0.6734376, 0.08948222, -0.29294774, 0.5997439
1565633162010, 11.138642, 6.327642, -9.0148535, -1.6621436, 0.657704, 0.09054748, -0.3057309, 0.5752428
1565633162016, 11.694023, 6.68929, -9.412427, -1.8465601, 0.64436966, 0.10546118, -0.3174488, 0.55074173
1565633162019, 12.1208725, 7.1132083, -9.651929, -1.7771046, 0.6291394, 0.10546118, -0.31957933, 0.531567
1565633162019, 11.929548, 6.981482, -9.508228, -1.7794995, 0.6127197, 0.11717909, -0.32170987, 0.50813115
1565633162029, 12.046471, 7.2257743, -9.477093, -1.7579445, 0.6004795, 0.113983296, -0.31638354, 0.49747851
1565633162030, 11.571457, 7.0916533, -8.966953, -1.7890797, 0.57845426, 0.11504856, -0.294013, 0.48469532
1565633162040, 12.718903, 7.9897857, -9.704619, -1.9375709, 0.5254562, 0.112918034, -0.26418558, 0.43995422
1565633162040, 13.398222, 8.610096, -10.073453, -1.9758912, 0.45200744, 0.11824436, -0.2247708, 0.37390783
1565633162050, 13.756478, 9.127419, -10.126143, -1.84177, 0.37808034, 0.128897, -0.19813919, 0.29507825
1565633162052, 13.642699, 9.168135, -9.984837, -1.5399976, 0.3204977, 0.16937704, -0.16085494, 0.21944448
1565633162059, 13.524956, 9.206455, -9.807606, -1.4058765, 0.29861817, 0.2034655, -0.15978967, 0.14913702
1565633162060, 13.771213, 9.441168, -9.970467, -1.0490186, 0.29829305, 0.2428803, -0.1587244, 0.06924219
1565633162070, 14.220821, 9.802815, -10.260264, -0.92926764, 0.33070758, 0.29294774, -0.15339808, -0.004261058
1565633162071, 14.144779, 9.529783, -10.37762, -1.2502003, 0.37859923, 0.33449304, -0.1555286, -0.08522116
1565633162080, 14.939206, 9.912986, -11.122471, -1.096919, 0.44671303, 0.37816888, -0.14487597, -0.18855181
1565633162081, 15.6013, 10.102193, -11.781101, -1.5974782, 0.52020913, 0.4133226, -0.13741912, -0.28442562
1565633162090, 15.387532, 9.829161, -11.730806, -1.5974782, 0.58020353, 0.4293016, -0.14807177, -0.36112466
1565633162091, 15.167396, 9.350157, -11.773916, -1.9998415, 0.6252821, 0.43888897, -0.1736381, -0.4101268
1565633162103, 15.298199, 9.283096, -11.953543, -2.2297633, 0.66416574, 0.43249738, -0.19068234, -0.46658584
1565633162105, 15.652395, 9.187295, -12.389437, -2.663262, 0.7063547, 0.41438788, -0.20026971, -0.535828
1565633162110, 15.84205, 9.11784, -12.636124, -2.8572583, 0.73697907, 0.38136467, -0.23329292, -0.5858955
1565633162111, 15.838353, 8.911868, -12.736714, -3.0344899, 0.779224, 0.34408042, -0.26844665, -0.64555025
1565633162122, 15.851608, 8.866363, -12.789405, -3.0153298, 0.8066268, 0.29614353, -0.294013, -0.69029135
1565633162124, 15.875305, 8.732242, -12.86365, -3.2093263, 0.8394372, 0.24394555, -0.32384038, -0.7350325
1565633162135, 15.935433, 8.590936, -13.074412, -3.032095, 0.88042736, 0.21944448, -0.35899413, -0.773382
1565633162136, 15.949152, 8.62207, -13.093573, -2.931504, 0.9262081, 0.1736381, -0.38456047, -0.8245147
1565633162140, 15.9625225, 8.52627, -13.198954, -2.8093581, 0.9719305, 0.13954964, -0.40266997, -0.87351686
1565633162142, 15.923517, 8.49274, -13.203743, -2.663262, 1.0146716, 0.10013486, -0.41758367, -0.9193232
1565633162151, 15.8055315, 8.411309, -13.184583, -2.2872438, 1.051192, 0.082025364, -0.43036684, -0.9555422
1565633162152, 15.665057, 8.293953, -13.148658, -1.9279908, 1.103285, 0.05965481, -0.43036684, -1.0141318
1565633162162, 15.559074, 8.145462, -13.153448, -1.6501685, 1.1425223, 0.06711166, -0.4495416, -1.0482203
1565633162163, 15.448455, 8.032896, -13.139078, -1.22146, 1.182232, 0.08841695, -0.45486793, -1.087635
1565633162171, 15.286605, 7.9873905, -13.002562, -0.9029224, 1.2183785, 0.113983296, -0.45912898, -1.1227888
1565633162172, 14.946727, 7.7430983, -12.772639, -0.5556446, 1.245045, 0.16405073, -0.46552056, -1.1430287
1565633162183, 14.694414, 7.719148, -12.502003, -0.20118165, 1.2765735, 0.20559604, -0.46019423, -1.1728562
1565633162184, 14.282123, 7.561077, -12.116405, -0.043110352, 1.308624, 0.257794, -0.45806372, -1.1984226
1565633162193, 13.90548, 7.5131764, -11.699671, 0.17962648, 1.3493172, 0.3206446, -0.46871635, -1.2239889
1565633162195, 13.675301, 7.4772515, -11.448194, 0.2083667, 1.3970914, 0.3834952, -0.47404268, -1.257012
1565633162203, 13.227565, 7.3311553, -11.00751, 0.23950197, 1.4469366, 0.43036684, -0.4857606, -1.293231
1565633162204, 13.005912, 7.2904396, -10.770403, 0.040715333, 1.5014551, 0.4708469, -0.50387007, -1.3337111
1565633162214, 12.761088, 7.199429, -10.533297, -0.25147706, 1.5586417, 0.49641323, -0.52624065, -1.3805827
1565633162215, 12.572564, 7.1443434, -10.332115, -0.5245093, 1.6286949, 0.515588, -0.55074173, -1.4434333
1565633162222, 12.336582, 7.0198026, -10.104588, -0.90052736, 1.6877414, 0.49534798, -0.58909124, -1.5020229
1565633162224, 12.127561, 6.7731156, -9.970467, -1.3388159, 1.7416518, 0.47617322, -0.6199839, -1.5563514
1565633162232, 12.011625, 6.543194, -9.936936, -1.6501685, 1.7903508, 0.44315, -0.6412892, -1.6117451
1565633162234, 12.127837, 6.4976883, -10.066268, -1.8800904, 1.8509775, 0.40266997, -0.67537767, -1.675661
1565633162242, 11.924904, 6.095325, -10.044712, -2.0381618, 1.9056417, 0.34621096, -0.73290193, -1.7246631
1565633162244, 11.952227, 5.855823, -10.162068, -2.3016138, 1.9572477, 0.30253512, -0.777643, -1.7704695
1565633162252, 11.87528, 5.50136, -10.265054, -2.320774, 2.0109637, 0.24394555, -0.83729786, -1.8120148
1565633162254, 11.903106, 5.216353, -10.425521, -2.4045997, 2.0440264, 0.19387813, -0.89162636, -1.8290591
1565633162264, 11.946575, 4.91937, -10.629097, -2.3543043, 2.0757883, 0.14061491, -0.94488955, -1.8429075
1565633162265, 11.963476, 4.6271777, -10.796748, -2.2680836, 2.097303, 0.07989483, -0.9960223, -1.8439728
1565633162274, 12.0278845, 4.416416, -10.935659, -2.3614893, 2.115844, 0.022370555, -1.0354371, -1.845038
1565633162275, 11.910937, 4.1074586, -10.921289, -2.3926246, 2.1102207, -0.04580637, -1.051416, -1.8290591
1565633162284, 12.021697, 3.9517825, -11.112891, -2.3255641, 2.107462, -0.10333065, -1.0620687, -1.8173412
1565633162286, 11.940642, 3.8248463, -11.081756, -2.2680836, 2.0914474, -0.1768339, -1.0386329, -1.8066885
1565633162294, 11.906508, 3.7338357, -11.098521, -2.1555176, 2.0627668, -0.23861924, -0.9821738, -1.7981664
1565633162295, 11.699202, 3.6452198, -10.933265, -2.0118165, 2.0183747, -0.29188246, -0.90973586, -1.7779263
1565633162304, 11.575169, 3.5757644, -10.885365, -1.6453785, 1.9684498, -0.34514567, -0.829841, -1.7512947
1565633162306, 11.396869, 3.6859353, -10.686578, -1.4489869, 1.9239886, -0.38136467, -0.7126619, -1.7459685
1565633162315, 11.251977, 3.6500099, -10.605147, -0.9029224, 1.8946123, -0.4016047, -0.62531024, -1.7427727
1565633162316, 10.89548, 3.6116896, -10.255474, -0.70174074, 1.8620256, -0.41225734, -0.5134575, -1.7417074
1565633162323, 10.65874, 3.4655933, -10.073453, -0.3520679, 1.82359, -0.39627838, -0.4101268, -1.73212
1565633162325, 10.379251, 3.300337, -9.83874, -0.18920656, 1.7920871, -0.3888215, -0.29933932, -1.7235979
1565633162333, 10.179663, 3.1614258, -9.6758795, 0.09101075, 1.7603278, -0.35792887, -0.20026971, -1.71188
1565633162337, 9.863556, 3.0895753, -9.359736, 0.37362307, 1.7397577, -0.31851408, -0.128897, -1.7054884
1565633162344, 9.567791, 2.9027638, -9.10347, 0.49337405, 1.7209964, -0.28442562, -0.035153728, -1.6969663
1565633162346, 9.319087, 2.799778, -8.878338, 0.4263135, 1.6972799, -0.2545982, 0.03089267, -1.6777915
1565633162353, 9.205607, 2.5459058, -8.840017, 0.34009278, 1.6828059, -0.21624869, 0.07563378, -1.6671388
1565633162355, 8.976376, 2.4501052, -8.631651, 0.25866213, 1.6702535, -0.17896444, 0.101200126, -1.6575515
1565633162363, 8.785743, 2.311194, -8.475974, 0.07424561, 1.6584991, -0.16618125, 0.11930962, -1.6458336
1565633162365, 8.644934, 2.1411476, -8.372989, -0.2083667, 1.6334537, -0.14487597, 0.12250541, -1.6223978
1565633162373, 8.4539, 2.186653, -8.157437, -0.3784131, 1.6139108, -0.13315806, 0.11504856, -1.6042882
1565633162375, 8.419542, 2.095642, -8.128696, -0.6490503, 1.6044867, -0.13528858, 0.098004326, -1.5957662
1565633162383, 8.270453, 2.071692, -7.95865, -0.8765772, 1.5987877, -0.13848437, 0.08628642, -1.5904398
1565633162384, 8.2941065, 2.186653, -7.92512, -1.096919, 1.598207, -0.1438107, 0.06391586, -1.5904398
1565633162392, 8.161629, 2.1052222, -7.807764, -1.104104, 1.5958927, -0.16192019, 0.036218993, -1.587244
1565633162393, 8.114178, 1.9303858, -7.781419, -1.2502003, 1.5815407, -0.18855181, 0.013848438, -1.5701998
1565633162403, 8.072722, 1.8681153, -7.7407036, -1.3268409, 1.5804464, -0.2130529, -0.015978966, -1.5659387
1565633162405, 8.030491, 1.7818946, -7.692803, -1.4609619, 1.5645174, -0.23755397, -0.04580637, -1.5456988
1565633162412, 7.9398947, 1.710044, -7.592212, -1.5735279, 1.5504078, -0.26738137, -0.07243799, -1.5254587
1565633162413, 7.9939594, 1.6405884, -7.6281376, -1.7387843, 1.5406942, -0.2876214, -0.0777643, -1.5116103
1565633162426, 7.85787, 1.6836988, -7.460486, -1.8034497, 1.5313157, -0.32597092, -0.070307456, -1.4945661
1565633162427, 7.839023, 1.707649, -7.417376, -1.8753004, 1.5328808, -0.3653857, -0.039414786, -1.4881744
1565633162436, 7.7978654, 1.6166383, -7.455696, -1.6142433, 1.526673, -0.39947417, 0.025566347, -1.4732608
1565633162437, 7.76294, 1.4609619, -7.472461, -1.5136524, 1.5121754, -0.4079963, 0.10972224, -1.4519554
1565633162446, 7.542721, 1.2094849, -7.326365, -1.3244458, 1.493761, -0.4282363, 0.19387813, -1.417867
1565633162447, 7.5421243, 1.0657837, -7.3383403, -1.3771362, 1.4916981, -0.4495416, 0.2908172, -1.3923006
1565633162458, 7.5036826, 0.9029224, -7.350315, -1.2094849, 1.4818809, -0.45806372, 0.39840892, -1.3518206
1565633162460, 7.390566, 0.5963599, -7.278465, -1.1352394, 1.4727002, -0.4676511, 0.5028048, -1.3028184
1565633162465, 7.3293357, 0.23471193, -7.2545147, -1.0178833, 1.4549297, -0.47510794, 0.5901565, -1.2420983
1565633162466, 7.32263, 0.18920656, -7.2569094, -0.96040285, 1.4368302, -0.479369, 0.6625945, -1.1813782
1565633162477, 7.234384, -0.026345216, -7.194639, -0.7568262, 1.4107134, -0.46978164, 0.71159667, -1.123854
1565633162478, 7.2843637, -0.16765137, -7.2545147, -0.63707525, 1.3692362, -0.4676511, 0.7435546, -1.0503508
1565633162486, 7.2124457, -0.3305127, -7.182664, -0.56522465, 1.3150685, -0.46019423, 0.74781567, -0.97897804
1565633162488, 7.201891, -0.41194338, -7.1778736, -0.41912845, 1.2467203, -0.43782368, 0.71798825, -0.92038846
1565633162498, 7.314012, -0.32332766, -7.3000197, -0.3161426, 1.1623226, -0.42397526, 0.68176925, -0.8404937
1565633162499, 7.2211127, -0.3305127, -7.206614, -0.3161426, 1.073553, -0.40586576, 0.61891866, -0.777643
1565633162505, 7.2653303, -0.2802173, -7.2545147, -0.2802173, 0.99769056, -0.3834952, 0.56885123, -0.72437984
1565633162507, 7.321688, 0.0023950196, -7.31918, -0.19160157, 0.90441954, -0.36005938, 0.49215218, -0.6679208
1565633162517, 7.490343, 0.028740235, -7.486831, -0.22752686, 0.81288123, -0.34194988, 0.43356264, -0.5965481
1565633162519, 7.6342716, 0.1939966, -7.6257424, -0.30416748, 0.7427002, -0.3387541, 0.36218992, -0.55287224
1565633162526, 7.7937083, 0.4263135, -7.7574687, -0.6179151, 0.69045657, -0.32490566, 0.33449304, -0.5091964
1565633162528, 7.9791627, 0.50534916, -7.913145, -0.8909473, 0.64147055, -0.32277513, 0.3153183, -0.45593318
1565633162538, 8.100659, 0.7113208, -8.025711, -0.8382569, 0.6169417, -0.32810146, 0.31957933, -0.4133226
1565633162539, 8.286731, 0.69216067, -8.207732, -0.90771246, 0.6004814, -0.3387541, 0.314253, -0.3834952
1565633162545, 8.471604, 0.76161623, -8.375383, -1.0202783, 0.5973266, -0.35473305, 0.33768883, -0.34194988
1565633162547, 8.666854, 0.73048097, -8.566985, -1.089734, 0.5821024, -0.36645097, 0.3472762, -0.28975195
1565633162556, 8.816759, 0.732876, -8.729847, -0.99393314, 0.5697024, -0.3717773, 0.3568636, -0.2428803
1565633162558, 9.039558, 0.60594, -8.964559, -0.9915381, 0.58508337, -0.38029942, 0.40266997, -0.18855181
1565633162566, 9.2715025, 0.5364844, -9.196876, -1.0442286, 0.5987829, -0.4016047, 0.43036684, -0.10972224
1565633162567, 9.412725, 0.34967285, -9.359736, -0.93405765, 0.6168737, -0.39734364, 0.4708469, -0.03089267
1565633162578, 9.463995, 0.1580713, -9.431587, -0.7664063, 0.6345427, -0.38242993, 0.50387007, 0.05006743
1565633162580, 9.654069, 0.18920656, -9.637559, -0.53169435, 0.6693642, -0.37284255, 0.535828, 0.14807177
1565633162587, 9.648429, 0.06466553, -9.644744, -0.25866213, 0.70048326, -0.350472, 0.5571333, 0.2396845
1565633162588, 9.69277, -0.043110352, -9.692644, -0.023950197, 0.71780175, -0.3089267, 0.5496765, 0.34301516
1565633162598, 9.75438, -0.17244141, -9.74773, 0.3161426, 0.75140727, -0.25566345, 0.5486112, 0.44528055
1565633162600, 9.790736, -0.26105714, -9.7740755, 0.50774413, 0.78639466, -0.19068234, 0.50600064, 0.57098174
1565633162607, 9.820788, -0.3305127, -9.800421, 0.5388794, 0.8289448, -0.11824436, 0.45486793, 0.6828345
1565633162608, 9.911354, -0.22752686, -9.898616, 0.44786867, 0.88087386, -0.056459017, 0.36432046, 0.8000136
1565633162617, 9.903244, -0.1820215, -9.898616, 0.24189699, 0.94243395, -0.004261058, 0.2790993, 0.90014845
1565633162619, 9.995043, 0.07903565, -9.994417, 0.07903565, 1.0377103, 0.054328486, 0.1917476, 1.0183928
1565633162629, 10.039781, 0.2706372, -10.032737, -0.26105714, 1.1168376, 0.09267801, 0.094808534, 1.1089402
1565633162630, 10.104501, 0.7209009, -10.054293, -0.70174074, 1.2121328, 0.12250541, 0.010652645, 1.2058793
1565633162637, 10.321394, 1.2957057, -10.183623, -1.0705738, 1.276542, 0.15020229, -0.05219796, 1.2665994
1565633162639, 10.612412, 1.8968556, -10.327325, -1.5399976, 1.3530914, 0.15446335, -0.10546118, 1.3401027
1565633162649, 11.003828, 2.4908204, -10.538086, -1.9567311, 1.402491, 0.14594123, -0.12676647, 1.3891048
1565633162650, 11.534311, 3.051255, -10.851834, -2.44292, 1.4298674, 0.13422333, -0.13848437, 1.4168017
1565633162658, 12.191392, 3.776946, -11.2302475, -2.8716285, 1.451969, 0.10439592, -0.12996227, 1.442368
1565633162659, 12.845454, 4.4259963, -11.567945, -3.4057178, 1.4668517, 0.068176925, -0.10439592, 1.4615428
1565633162668, 13.37579, 4.7972245, -11.903248, -3.7697608, 1.4705489, 0.013848438, -0.066046394, 1.4689997
1565633162670, 13.856843, 5.1061816, -12.250525, -3.9829175, 1.485838, -0.0479369, -0.015978966, 1.4849787
1565633162677, 14.3774805, 5.4271145, -12.633729, -4.2008643, 1.4990921, -0.099069595, 0.023435818, 1.4956313
1565633162678, 14.62508, 5.630691, -12.84449, -4.148174, 1.5180019, -0.14913702, 0.05965481, 1.5094798
1565633162688, 14.954809, 5.6666164, -13.179793, -4.2224197, 1.550048, -0.22690132, 0.10546118, 1.5297197
1565633162691, 15.17956, 5.726492, -13.457615, -4.064348, 1.5807772, -0.28442562, 0.13741912, 1.5488945
1565633162696, 15.3874235, 5.757627, -13.802498, -3.6212697, 1.6334679, -0.314253, 0.18216023, 1.5925703
1565633162698, 15.3426075, 5.6354814, -13.900694, -3.2260914, 1.6803262, -0.3291667, 0.18535602, 1.6373115
1565633162709, 15.336591, 5.592371, -14.06595, -2.4668703, 1.7278832, -0.3174488, 0.18429075, 1.6884441
1565633162710, 15.325012, 5.599556, -14.116245, -2.0573218, 1.7821836, -0.2908172, 0.17896444, 1.7491642
1565633162722, 15.409113, 5.750442, -14.195281, -1.6932789, 1.810594, -0.25033715, 0.14274544, 1.7875137
1565633162722, 15.248052, 5.716912, -14.073135, -1.3292359, 1.8708252, -0.19387813, 0.10439592, 1.8578212
1565633162728, 14.991978, 5.6714063, -13.852794, -0.8334668, 1.9286895, -0.12676647, 0.05006743, 1.9238676
1565633162728, 14.623538, 5.5780005, -13.507911, -0.51971924, 1.9951141, -0.05219796, -0.03195793, 1.9941751
1565633162739, 14.348228, 5.6666164, -13.163028, -0.7041358, 2.0713403, 0.020240024, -0.12144015, 2.0676782
1565633162740, 14.08384, 5.870193, -12.78701, -0.6227051, 2.1418693, 0.0958738, -0.19813919, 2.130529
1565633162749, 13.726959, 6.1743608, -12.240946, -0.6825806, 2.2123625, 0.15765914, -0.28655612, 2.1880531
1565633162750, 13.5920725, 6.68929, -11.8002615, -0.8669971, 2.2657318, 0.22583607, -0.36112466, 2.2253375
1565633162761, 13.342762, 7.096443, -11.249407, -1.0585986, 2.3197708, 0.27803403, -0.42397526, 2.263687
1565633162762, 13.277415, 7.585027, -10.815908, -1.331631, 2.3578105, 0.32170987, -0.49428272, 2.2828617
1565633162768, 13.236789, 8.152647, -10.284214, -1.7268091, 2.3638508, 0.35579833, -0.5592638, 2.2690134
1565633162770, 13.252319, 8.729847, -9.7621, -2.0285816, 2.3279524, 0.36964676, -0.59122175, 2.2210765
1565633162780, 13.638944, 9.553733, -9.436378, -2.3878345, 2.2675326, 0.37071204, -0.6114618, 2.1518342
1565633162782, 13.843179, 10.245894, -8.919053, -2.6656568, 2.1704385, 0.36005938, -0.61678815, 2.049569
1565633162788, 14.17318, 10.861414, -8.57896, -3.051255, 2.0540667, 0.34301516, -0.6061355, 1.9323897
1565633162790, 14.377038, 11.273357, -8.3179035, -3.2284865, 1.9027452, 0.30360037, -0.5965481, 1.7811222
1565633162800, 14.535716, 11.635005, -7.9730206, -3.5134938, 1.7633528, 0.2759035, -0.58483016, 1.6405072
1565633162802, 14.536197, 11.697276, -7.7407036, -3.8152664, 1.5879978, 0.221575, -0.5496765, 1.4732608
1565633162810, 15.11935, 12.231365, -8.028106, -3.8128712, 1.3840717, 0.16618125, -0.51984906, 1.2719258
1565633162811, 14.978684, 12.051739, -8.028106, -3.8296363, 1.2282989, 0.111852765, -0.49747851, 1.1174624
1565633162821, 14.029024, 11.285333, -7.5083866, -3.6164796, 1.0829024, 0.06178534, -0.46552056, 0.9757822
1565633162822, 13.581365, 10.813514, -7.4748564, -3.412903, 0.95894164, 0.01917476, -0.4708469, 0.83516735
1565633162829, 13.344774, 10.442286, -7.683223, -3.163821, 0.8329537, -0.026631612, -0.43036684, 0.7126619
1565633162831, 12.982064, 10.008787, -7.798184, -2.7470875, 0.7309771, -0.046871636, -0.40266997, 0.608266
1565633162840, 12.455213, 9.352551, -7.8700347, -2.3926246, 0.63984454, -0.053263225, -0.37071204, 0.5187838
1565633162842, 12.08271, 8.856783, -7.9730206, -1.9950514, 0.57291126, -0.029827405, -0.35792887, 0.4463458
1565633162850, 11.646169, 8.363408, -7.9921803, -1.346001, 0.5217687, -0.0053263223, -0.3291667, 0.4048005
1565633162852, 11.342603, 7.9826, -8.008945, -0.8885523, 0.45727775, 0.04580637, -0.30253512, 0.33981937
1565633162861, 11.0406885, 7.556287, -8.018526, -0.7089258, 0.41102785, 0.08948222, -0.2609898, 0.30466563
1565633162863, 10.707488, 7.1706886, -7.937095, -0.48379397, 0.37112352, 0.13422333, -0.20879184, 0.2759035
1565633162869, 10.395638, 6.806646, -7.8412943, -0.5029541, 0.34470153, 0.18002969, -0.15233281, 0.2514024
1565633162871, 10.119943, 6.598279, -7.656878, -0.4981641, 0.31651983, 0.21837921, -0.08948222, 0.21092236
1565633162881, 9.909209, 6.3947024, -7.551497, -0.5245093, 0.32698762, 0.25885928, -0.025566347, 0.19813919
1565633162884, 9.587943, 6.1144853, -7.3575, -0.6394702, 0.34514898, 0.28655612, 0.025566347, 0.19068234
1565633162890, 9.249455, 5.726492, -7.220984, -0.78556645, 0.37274516, 0.30679616, 0.10226539, 0.18535602
1565633162891, 8.9660845, 5.4031644, -7.065308, -1.1304493, 0.39273024, 0.30360037, 0.16405073, 0.18748654
1565633162900, 8.7207365, 5.2187476, -6.854546, -1.3531861, 0.4234624, 0.30253512, 0.23116238, 0.18535602
1565633162901, 8.563172, 4.984036, -6.72761, -1.7962648, 0.44899732, 0.27164245, 0.29614353, 0.20026971
1565633162913, 8.383513, 4.7708793, -6.5719337, -2.0812721, 0.4779442, 0.23329292, 0.36112466, 0.20879184
1565633162915, 8.357524, 4.7301636, -6.4138627, -2.5171657, 0.511378, 0.18216023, 0.4282363, 0.21198763
1565633162919, 8.349682, 4.6822634, -6.3156667, -2.811753, 0.5322976, 0.099069595, 0.48043427, 0.2066613
1565633162921, 8.308701, 4.509822, -6.222261, -3.159031, 0.5802759, 0.0127831735, 0.5432849, 0.2034655
1565633162932, 8.204405, 4.4331813, -6.071375, -3.2859669, 0.6339317, -0.05752428, 0.60080916, 0.19387813
1565633162933, 8.251438, 4.399651, -6.11209, -3.3721876, 0.70087683, -0.15446335, 0.6562029, 0.1917476
1565633162941, 8.200966, 4.3445654, -6.1240654, -3.297942, 0.7593699, -0.23329292, 0.700944, 0.17576863
1565633162943, 8.161899, 4.267925, -6.13604, -3.278782, 0.818096, -0.30466563, 0.74035877, 0.16831179
1565633162951, 7.973914, 4.126619, -6.1815457, -2.8883936, 0.86931455, -0.3749731, 0.7680557, 0.1587244
1565633162953, 7.8524837, 3.8487966, -6.2701616, -2.7446926, 0.9165813, -0.44847634, 0.7819041, 0.16618125
1565633162960, 7.737224, 3.65959, -6.332432, -2.5243506, 0.9550837, -0.49747851, 0.79681784, 0.17257284
1565633162962, 7.7168903, 3.5494192, -6.4018874, -2.44292, 1.0117354, -0.5496765, 0.8277105, 0.19068234
1565633162970, 7.6194143, 3.2236965, -6.588699, -2.0621119, 1.0507531, -0.5816344, 0.8479505, 0.21624869
1565633162972, 7.512778, 3.1111305, -6.586304, -1.839375, 1.0940458, -0.6114618, 0.8767126, 0.23329292
1565633162979, 7.554335, 3.1853762, -6.6581545, -1.6094532, 1.1302536, -0.6498113, 0.88843054, 0.25672874
1565633162981, 7.387005, 3.0057497, -6.638994, -1.2070899, 1.1773182, -0.6775082, 0.9171927, 0.29294774
1565633162989, 7.5653396, 3.0704153, -6.864126, -0.8310718, 1.1925015, -0.6764429, 0.9267801, 0.32490566
1565633162990, 7.483489, 2.8883936, -6.8832865, -0.5292993, 1.2091184, -0.6689861, 0.9406285, 0.36005938
1565633162999, 7.480676, 2.811753, -6.9311867, -0.11496094, 1.2212605, -0.6487461, 0.95447695, 0.39947417
1565633163000, 7.4513717, 2.7135572, -6.935977, 0.22752686, 1.2162998, -0.6135923, 0.9555422, 0.43569317
1565633163010, 7.448955, 2.663262, -6.9383717, 0.5029541, 1.2193947, -0.5795039, 0.9555422, 0.4878911
1565633163019, 7.5232787, 2.7614577, -6.933582, 0.9484278, 1.2116596, -0.5251754, 0.9502159, 0.53795856
1565633163020, 7.610356, 2.6249416, -7.072493, 1.0035132, 1.1782321, -0.4612595, 0.9129316, 0.58483016
1565633163021, 7.6429777, 2.7015822, -7.065308, 1.094524, 1.1432397, -0.4016047, 0.85540736, 0.64341974
1565633163030, 7.662223, 2.6297317, -7.103628, 1.1543995, 1.1120979, -0.350472, 0.7946873, 0.6945524
1565633163031, 7.632778, 2.8285182, -7.0102224, 1.0562036, 1.0677404, -0.29294774, 0.716923, 0.7350325
1565633163041, 7.725498, 2.931504, -7.0916533, 0.8933423, 1.0427763, -0.2396845, 0.63915867, 0.7882957
1565633163042, 7.839134, 3.293152, -7.070098, 0.7879615, 1.0106401, -0.20985709, 0.5550028, 0.8181231
1565633163054, 7.9331455, 3.558999, -7.072493, 0.4981641, 0.9873858, -0.16724652, 0.46978164, 0.8522116
1565633163054, 8.074174, 3.9541774, -7.0341725, 0.2778223, 0.95948815, -0.11930962, 0.3834952, 0.87138635
1565633163064, 8.196006, 4.1984696, -7.031778, 0.31853762, 0.9468823, -0.096939065, 0.2908172, 0.89588743
1565633163065, 8.142838, 4.3565407, -6.8737063, 0.2802173, 0.9268713, -0.054328486, 0.20026971, 0.9033443
1565633163073, 8.281603, 4.598438, -6.8832865, 0.244292, 0.9140522, -0.008522116, 0.12463594, 0.9054748
1565633163074, 8.392725, 4.967271, -6.7635355, 0.13651612, 0.9145864, 0.039414786, 0.03834952, 0.9129316
1565633163083, 8.640488, 5.3480787, -6.7850904, 0.13651612, 0.88985366, 0.07989483, -0.04261058, 0.8852348
1565633163084, 8.843205, 5.621111, -6.823411, 0.21555176, 0.8778568, 0.13315806, -0.10972224, 0.8607337
1565633163093, 9.126188, 6.0426345, -6.837781, 0.13651612, 0.86896724, 0.19387813, -0.18002969, 0.8277105
1565633163094, 9.324205, 6.2677665, -6.9024467, 0.1101709, 0.8660574, 0.24714136, -0.2396845, 0.7946873
1565633163107, 9.636357, 6.4928985, -7.1203933, -0.040715333, 0.87217903, 0.30040458, -0.29507825, 0.7637946
1565633163108, 9.925484, 6.734795, -7.2808595, -0.38320315, 0.86986464, 0.3472762, -0.34940675, 0.716923
1565633163111, 10.245183, 6.945557, -7.5083866, -0.5891748, 0.8740571, 0.39627838, -0.3920173, 0.67324716
1565633163112, 10.50228, 7.060518, -7.7383084, -0.75203615, 0.88052535, 0.4314321, -0.4282363, 0.63702816
1565633163124, 10.817348, 7.1395535, -8.059241, -1.0442286, 0.88752705, 0.4527374, -0.45699844, 0.6114618
1565633163125, 10.951732, 7.1371584, -8.193362, -1.3675562, 0.9026587, 0.46552056, -0.49215218, 0.5965481
1565633163134, 11.35802, 7.168294, -8.643626, -1.705254, 0.90182924, 0.45912898, -0.5187838, 0.5773733
1565633163135, 11.416121, 7.077283, -8.737032, -1.9758912, 0.9155438, 0.45060685, -0.53795856, 0.588026
1565633163142, 11.772601, 7.30481, -8.907078, -2.42855, 0.89401835, 0.40906155, -0.5475459, 0.5763081
1565633163143, 12.0353985, 7.5059915, -9.060359, -2.5339308, 0.8812654, 0.4101268, -0.5336975, 0.56885123
1565633163152, 12.273088, 7.793394, -9.09868, -2.6656568, 0.8578944, 0.38136467, -0.53263223, 0.5539375
1565633163153, 12.547574, 8.090376, -9.204061, -2.6967921, 0.8279675, 0.34940675, -0.5134575, 0.5475459
1565633163165, 12.920618, 8.602911, -9.271121, -2.6417067, 0.79733104, 0.3355583, -0.5006743, 0.5219796
1565633163167, 13.368151, 9.057964, -9.457932, -2.684817, 0.74300575, 0.3153183, -0.48469532, 0.46658584
1565633163173, 13.592484, 9.479487, -9.395662, -2.572251, 0.68344086, 0.29933932, -0.4612595, 0.40586576
1565633163175, 14.025459, 9.989627, -9.441168, -2.7901978, 0.6127901, 0.2790993, -0.4293016, 0.33662358
1565633163185, 14.383485, 10.43031, -9.551338, -2.6201515, 0.545379, 0.25353295, -0.41225734, 0.2514024
1565633163187, 14.814554, 10.935659, -9.64714, -2.6105714, 0.48241428, 0.24501082, -0.3898868, 0.1438107
1565633163193, 15.173455, 11.225457, -9.910591, -2.4501052, 0.44129986, 0.23648871, -0.3717773, 0.024501082
1565633163195, 15.527041, 11.527229, -10.138118, -2.3303542, 0.44957948, 0.2396845, -0.36751625, -0.098004326
1565633163205, 15.889313, 11.761941, -10.485396, -2.0453467, 0.49757886, 0.257794, -0.36005938, -0.22690132
1565633163207, 16.273178, 11.910433, -10.918895, -1.9327809, 0.5710076, 0.2727077, -0.3568636, -0.35260254
1565633163214, 16.203398, 11.539205, -11.201507, -1.9806812, 0.6547582, 0.29507825, -0.35899413, -0.4612595
1565633163216, 16.043297, 11.127261, -11.378738, -2.0237916, 0.7334491, 0.314253, -0.3717773, -0.5486112
1565633163225, 15.976745, 10.818304, -11.5895, -1.9758912, 0.7907248, 0.32810146, -0.3685815, -0.6178534
1565633163227, 15.969807, 10.468631, -11.876903, -2.0932472, 0.84604937, 0.33768883, -0.3834952, -0.6743124
1565633163233, 15.897578, 10.176438, -11.996654, -2.2920337, 0.897604, 0.33768883, -0.3930826, -0.73290193
1565633163235, 15.938731, 9.968072, -12.212205, -2.3543043, 0.93989235, 0.32384038, -0.40266997, -0.7850999
1565633163243, 15.83935, 9.759705, -12.228971, -2.4668703, 0.96434915, 0.3110572, -0.40266997, -0.81918836
1565633163247, 15.876878, 9.601634, -12.387041, -2.5387208, 0.990901, 0.29294774, -0.39627838, -0.85966843
1565633163260, 15.796991, 9.455538, -12.372671, -2.6560767, 1.0171056, 0.2759035, -0.39947417, -0.89375687
1565633163261, 15.848555, 9.259146, -12.597803, -2.5962012, 1.0471072, 0.257794, -0.4111921, -0.92784536
1565633163262, 15.83283, 9.096285, -12.727135, -2.440525, 1.0733119, 0.23329292, -0.42717105, -0.95660746
1565633163263, 15.717297, 8.919053, -12.707974, -2.44771, 1.103218, 0.2066613, -0.4463458, -0.98750013
1565633163276, 15.763478, 8.873548, -12.813355, -2.3590944, 1.1212261, 0.20133498, -0.46019423, -1.0024139
1565633163276, 15.759074, 8.691526, -12.954661, -2.2321582, 1.1531049, 0.18642128, -0.4857606, -1.0290455
1565633163286, 15.548565, 8.468789, -12.885205, -2.0022364, 1.1802611, 0.18109496, -0.5113269, -1.0482203
1565633163287, 15.410556, 8.310719, -12.84928, -1.8202149, 1.1943724, 0.18109496, -0.5368933, -1.051416
1565633163296, 15.265585, 8.150251, -12.8061695, -1.6166383, 1.212724, 0.18961707, -0.551807, -1.063134
1565633163297, 14.940458, 7.9682302, -12.564273, -1.3651612, 1.215514, 0.19281286, -0.58056915, -1.0503508
1565633163307, 14.630747, 7.7598634, -12.336746, -1.2837305, 1.2287289, 0.20985709, -0.58696073, -1.0588728
1565633163309, 14.342243, 7.726333, -12.037369, -1.0514137, 1.2325087, 0.22583607, -0.5965481, -1.0546118
1565633163314, 13.905217, 7.5970025, -11.61345, -0.8765772, 1.2482563, 0.25033715, -0.58909124, -1.071656
1565633163316, 13.593973, 7.719148, -11.160791, -0.8047266, 1.2621064, 0.2759035, -0.5837649, -1.0844392
1565633163324, 13.222071, 7.8436894, -10.617122, -0.7592212, 1.2955074, 0.28655612, -0.56245965, -1.1313108
1565633163325, 12.911392, 7.8987746, -10.193204, -0.64186525, 1.3284929, 0.314253, -0.5390238, -1.1728562
1565633163337, 12.825522, 8.131092, -9.898616, -0.62989014, 1.3868095, 0.33981937, -0.51984906, -1.2399678
1565633163339, 12.585364, 8.131092, -9.582474, -0.6730005, 1.4510181, 0.35899413, -0.5123922, -1.3092101
1565633163345, 12.3241825, 8.1143265, -9.259146, -0.55803955, 1.523178, 0.37816888, -0.52624065, -1.3784522
1565633163347, 12.094789, 7.927515, -9.1130495, -0.62510014, 1.6086178, 0.4111921, -0.5571333, -1.4519554
1565633163357, 11.806304, 7.563472, -9.045989, -0.5939649, 1.7035873, 0.44208476, -0.6135923, -1.526524
1565633163358, 11.525691, 7.2640944, -8.926238, -0.62989014, 1.7896748, 0.43888897, -0.6860303, -1.5936357
1565633163365, 11.271577, 6.830596, -8.928633, -0.81909674, 1.8732202, 0.44847634, -0.76485986, -1.6500946
1565633163367, 11.219234, 6.5120583, -9.081915, -0.9915381, 1.9496895, 0.45593318, -0.85753787, -1.6905746
1565633163375, 10.991481, 5.997129, -9.125025, -1.2573853, 2.0119607, 0.4495416, -0.9374327, -1.7225326
1565633163377, 10.818971, 5.4438796, -9.211246, -1.6022681, 2.068072, 0.42184472, -1.0375676, -1.7385116
1565633163387, 10.73747, 5.031936, -9.314231, -1.7938697, 2.1090736, 0.38456047, -1.123854, -1.7427727
1565633163388, 10.6291, 4.5577226, -9.402847, -1.947151, 2.139916, 0.3472762, -1.1984226, -1.7385116
1565633163397, 10.789545, 4.3421707, -9.625584, -2.215393, 2.1614177, 0.2972088, -1.2655342, -1.7267936
1565633163398, 10.579618, 3.9350173, -9.584868, -2.1387525, 2.1660452, 0.25033715, -1.32945, -1.6916399
1565633163407, 10.648392, 3.8104763, -9.7142, -2.1219873, 2.1617608, 0.19600865, -1.3699301, -1.6607473
1565633163409, 10.637285, 3.5709743, -9.81, -2.0405567, 2.169495, 0.1470065, -1.4157364, -1.6373115
1565633163417, 10.609844, 3.4344583, -9.833951, -2.0166066, 2.1593235, 0.0958738, -1.4444987, -1.6021577
1565633163418, 10.58277, 3.295547, -9.874666, -1.9040406, 2.1263866, 0.053263225, -1.4317155, -1.5712651
1565633163428, 10.550376, 3.173401, -9.881851, -1.8944606, 2.0764532, -0.0010652645, -1.4168017, -1.5180018
1565633163429, 10.50138, 3.1183155, -9.865086, -1.7986598, 2.0218425, -0.05006743, -1.3837786, -1.4732608
1565633163436, 10.407351, 3.051255, -9.79563, -1.7459693, 1.9476253, -0.098004326, -1.3305153, -1.4189322
1565633163439, 10.197948, 2.9913795, -9.649534, -1.3915064, 1.8775222, -0.14913702, -1.2740563, -1.3709954
1565633163445, 10.089059, 2.8620484, -9.604029, -1.1663746, 1.7978799, -0.1768339, -1.1973573, -1.32945
1565633163447, 9.894446, 3.0799952, -9.362132, -0.87418216, 1.7238368, -0.20133498, -1.1206582, -1.2942963
1565633163455, 9.69074, 3.2141163, -9.127419, -0.51971924, 1.636714, -0.2130529, -1.0237192, -1.2591426
1565633163457, 9.519689, 3.2476466, -8.943004, -0.3161426, 1.5645806, -0.21944448, -0.9257148, -1.2420983
1565633163465, 9.404037, 3.5613942, -8.703502, -0.038320314, 1.4892119, -0.21198763, -0.8085357, -1.2325109
1565633163466, 9.193159, 3.6548, -8.432864, 0.2083667, 1.4385717, -0.1949434, -0.700944, -1.2410331
1565633163475, 9.048322, 3.6931202, -8.243657, 0.5245093, 1.3876312, -0.17470337, -0.59122175, -1.2431636
1565633163476, 8.973579, 3.7577858, -8.133487, 0.5005591, 1.3519906, -0.1438107, -0.479369, -1.2559468
1565633163485, 8.736331, 3.7074904, -7.8915896, 0.5484595, 1.3290325, -0.1257012, -0.38242993, -1.2665994
1565633163486, 8.557816, 3.5829494, -7.7574687, 0.46942386, 1.3140821, -0.10226539, -0.29614353, -1.2761868
1565633163495, 8.417773, 3.4464333, -7.668853, 0.41194338, 1.3123924, -0.07882957, -0.22796659, -1.2900352
1565633163497, 8.299836, 3.2308815, -7.6353226, 0.3879932, 1.306161, -0.07137272, -0.1768339, -1.2921658
1565633163508, 8.178302, 2.9961696, -7.606582, 0.21794678, 1.2960098, -0.05752428, -0.14274544, -1.2868395
1565633163509, 8.046726, 2.7087672, -7.575447, -0.1580713, 1.2858505, -0.056459017, -0.10333065, -1.2804478
1565633163518, 7.9533052, 2.6393116, -7.4892263, -0.44786867, 1.259463, -0.0628506, -0.101200126, -1.2538162
1565633163519, 7.8811193, 2.3734643, -7.479646, -0.73048097, 1.262727, -0.08522116, -0.099069595, -1.2559468
1565633163529, 7.7002587, 2.2321582, -7.32397, -0.81909674, 1.2412599, -0.10013486, -0.094808534, -1.2335763
1565633163530, 7.675711, 2.1722827, -7.302415, -0.93405765, 1.239022, -0.112918034, -0.09267801, -1.2303804
1565633163539, 7.682501, 2.1124072, -7.29523, -1.1567944, 1.2228373, -0.1438107, -0.08735169, -1.2112057
1565633163539, 7.523836, 2.0573218, -7.1467385, -1.1400293, 1.2186913, -0.1736381, -0.0777643, -1.2037488
1565633163546, 7.5503154, 1.9423609, -7.1874537, -1.2549903, 1.2071985, -0.17896444, -0.066046394, -1.1920309
1565633163547, 7.4865975, 1.8896705, -7.1539235, -1.1400293, 1.1876533, -0.2066613, -0.046871636, -1.1685951
1565633163559, 7.396794, 1.7315992, -7.0916533, -1.1927198, 1.1764287, -0.22370553, -0.022370555, -1.1547467
1565633163560, 7.378219, 1.6262183, -7.096443, -1.1975098, 1.1503578, -0.23009712, 0.011717909, -1.1270498
1565633163570, 7.389419, 1.4250367, -7.1539235, -1.1807446, 1.132281, -0.26312032, 0.043675844, -1.1004182
1565633163572, 7.3564057, 1.3028907, -7.1227884, -1.2981006, 1.1090083, -0.27483824, 0.09054748, -1.0705907
1565633163578, 7.3430386, 1.1543995, -7.110813, -1.4226416, 1.0806283, -0.30679616, 0.12996227, -1.0279802
1565633163580, 7.4027114, 1.0825489, -7.182664, -1.4274317, 1.0616423, -0.3355583, 0.17576863, -0.9917612
1565633163589, 7.513953, 1.0442286, -7.3000197, -1.4418018, 1.0525901, -0.36325517, 0.22050974, -0.96299905
1565633163591, 7.5258675, 0.90052736, -7.3383403, -1.4058765, 1.0255637, -0.38775626, 0.24927188, -0.91612744
1565633163598, 7.536335, 0.8765772, -7.3622904, -1.3507911, 1.0182, -0.42290998, 0.2759035, -0.8841695
1565633163599, 7.543905, 0.8095166, -7.3958206, -1.2478052, 0.9971928, -0.45167214, 0.28975195, -0.8404937
1565633163609, 7.623763, 0.8909473, -7.479646, -1.1759547, 0.97849977, -0.47297743, 0.3089267, -0.79894835
1565633163611, 7.6879196, 0.86220706, -7.5706573, -1.0226734, 0.95632327, -0.49002165, 0.3174488, -0.757403
1565633163620, 7.8648925, 0.8310718, -7.7622585, -0.95561284, 0.92543834, -0.49960902, 0.3121225, -0.7137272
1565633163621, 7.7183723, 0.7089258, -7.6520877, -0.7185059, 0.8845813, -0.50813115, 0.30146983, -0.6583334
1565633163630, 7.7862697, 0.5939649, -7.7478886, -0.49337405, 0.82523143, -0.50387007, 0.27164245, -0.5944176
1565633163632, 7.8937726, 0.50534916, -7.8652444, -0.4406836, 0.7790478, -0.50813115, 0.24820662, -0.535828
1565633163639, 7.880435, 0.5340894, -7.8580594, -0.25866213, 0.71736604, -0.49321744, 0.20879184, -0.47723848
1565633163641, 8.014151, 0.5388794, -7.9873905, -0.37122804, 0.67168283, -0.49854377, 0.17576863, -0.41438788
1565633163649, 8.031672, 0.62749517, -8.004155, -0.21794678, 0.62244815, -0.4889564, 0.15978967, -0.350472
1565633163651, 8.106582, 0.8933423, -8.054451, -0.21076173, 0.5997543, -0.4878911, 0.14913702, -0.3153183
1565633163661, 8.110948, 0.99393314, -8.049661, 0.050295413, 0.5554555, -0.4708469, 0.14274544, -0.257794
1565633163663, 8.29309, 1.1663746, -8.210127, -0.09340577, 0.5345102, -0.46232477, 0.1587244, -0.21624869
1565633163668, 8.571089, 1.4513819, -8.447234, -0.035925295, 0.5306942, -0.45593318, 0.20240025, -0.18109496
1565633163670, 8.7077465, 1.6549586, -8.547825, -0.14370118, 0.5121629, -0.4346279, 0.22690132, -0.14807177
1565633163679, 8.939351, 1.6405884, -8.784932, -0.21315674, 0.5097466, -0.42077947, 0.26418558, -0.113983296
1565633163681, 9.187143, 1.8034497, -9.005274, -0.23710695, 0.5154537, -0.40266997, 0.314253, -0.06924219
1565633163688, 9.268148, 1.7627344, -9.093889, -0.30416748, 0.54269344, -0.4016047, 0.36432046, -0.022370555
1565633163690, 9.47631, 1.7938697, -9.297466, -0.37362307, 0.59616464, -0.3888215, 0.45167214, 0.014913702
1565633163698, 9.792853, 1.8920655, -9.589659, -0.5987549, 0.65931696, -0.38242993, 0.531567, 0.07669904
1565633163710, 9.894702, 1.8058448, -9.687855, -0.8885523, 0.74325395, -0.39521313, 0.6178534, 0.12037488
1565633163711, 10.109619, 1.8561403, -9.896221, -0.90771246, 0.8222552, -0.39840892, 0.69774824, 0.17470337
1565633163713, 10.173186, 1.7914747, -9.984837, -0.7664063, 0.8931237, -0.406931, 0.75633776, 0.24501082
1565633163720, 10.362673, 1.6741188, -10.178833, -0.9867481, 0.9646927, -0.40266997, 0.8223842, 0.30360037
1565633163722, 10.50058, 1.7771046, -10.308165, -0.9196875, 1.0196985, -0.4111921, 0.8586032, 0.3653857
1565633163731, 10.612018, 1.6669337, -10.451866, -0.7711963, 1.0605402, -0.39734364, 0.8788432, 0.44101948
1565633163732, 10.791012, 1.695674, -10.636282, -0.66342044, 1.0683503, -0.37071204, 0.86606, 0.50387007
1565633163741, 10.852449, 1.6884888, -10.710527, -0.45744875, 1.06815, -0.34088463, 0.83516735, 0.572047
1565633163743, 10.996513, 1.7962648, -10.839859, -0.4406836, 1.0529513, -0.30253512, 0.7819041, 0.63702816
1565633163753, 11.253363, 1.8250049, -11.100916, -0.2778223, 1.0364699, -0.25672874, 0.7190535, 0.700944
1565633163755, 11.53678, 2.0237916, -11.345208, -0.5364844, 1.0149382, -0.22264028, 0.6466155, 0.7499462
1565633163759, 12.027106, 2.3782544, -11.773916, -0.60833496, 1.0101247, -0.18961707, 0.5795039, 0.80533993
1565633163761, 12.324256, 2.4980054, -12.034974, -0.8981324, 1.02262, -0.165116, 0.51452273, 0.8681905
1565633163770, 12.829775, 2.5890162, -12.506792, -1.2166699, 1.0413607, -0.15978967, 0.46232477, 0.9193232
1565633163772, 13.232967, 2.7303224, -12.84449, -1.6357985, 1.0880492, -0.165116, 0.43569317, 0.9832391
1565633163782, 13.628798, 2.7614577, -13.191768, -2.0237916, 1.1612052, -0.18109496, 0.41438788, 1.0695255
1565633163784, 13.866904, 2.7973828, -13.43127, -2.0166066, 1.2284148, -0.18642128, 0.41545314, 1.1408982
1565633163790, 14.071806, 2.8812087, -13.618082, -2.064507, 1.3091507, -0.1917476, 0.4261058, 1.2229236
1565633163792, 14.338832, 3.0344899, -13.879139, -1.9399658, 1.3953542, -0.18642128, 0.43249738, 1.3134711
1565633163802, 14.377767, 3.1949563, -13.915064, -1.698069, 1.474869, -0.17150758, 0.44208476, 1.3965617
1565633163806, 14.360624, 3.3626075, -13.888719, -1.4226416, 1.5584497, -0.13422333, 0.4282363, 1.4924355
1565633163810, 14.262623, 3.527864, -13.790523, -0.8933423, 1.6150678, -0.08735169, 0.41864893, 1.5574167
1565633163811, 14.243225, 3.8224514, -13.706697, -0.62031007, 1.6716392, -0.004261058, 0.37603834, 1.6287893
1565633163822, 14.229441, 4.152964, -13.601316, -0.48379397, 1.7148992, 0.07350325, 0.33129725, 1.6809874
1565633163824, 14.029908, 4.2343946, -13.371394, -0.33769777, 1.7637064, 0.16405073, 0.2759035, 1.7342505
1565633163831, 13.781597, 4.272715, -13.098362, -0.3305127, 1.8276964, 0.2545982, 0.19600865, 1.7992316
1565633163834, 13.371376, 4.119434, -12.715159, -0.38559815, 1.8986928, 0.33129725, 0.10972224, 1.8663434
1565633163842, 12.991258, 4.102669, -12.305611, -0.7161109, 1.9732425, 0.40906155, 0.02130529, 1.9302592
1565633163844, 12.746162, 4.2367897, -11.967913, -1.1328443, 2.0478725, 0.45699844, -0.0628506, 1.9952403
1565633163850, 12.401394, 4.248765, -11.53681, -1.6262183, 2.1231341, 0.5028048, -0.15339808, 2.0570257
1565633163852, 12.078118, 4.27032, -11.115286, -2.0237916, 2.1859512, 0.5187838, -0.23648871, 2.1102889
1565633163862, 11.785099, 4.394861, -10.696157, -2.2728736, 2.2614799, 0.5390238, -0.3323625, 2.171009
1565633163865, 11.583298, 4.8355446, -10.226734, -2.4908204, 2.294322, 0.5496765, -0.42290998, 2.1869879
1565633163870, 11.378921, 5.0822315, -9.831555, -2.6441016, 2.3269258, 0.5411543, -0.5091964, 2.2050974
1565633163872, 11.287529, 5.369634, -9.503438, -2.8740237, 2.3438263, 0.53263223, -0.5933523, 2.2040322
1565633163880, 11.257397, 5.7887626, -9.15137, -3.0776002, 2.3301468, 0.5123922, -0.6562029, 2.1763353
1565633163882, 11.361267, 6.2342362, -8.878338, -3.3745828, 2.307624, 0.50173956, -0.6892261, 2.1443772
1565633163890, 11.5312, 6.71803, -8.710687, -3.4584084, 2.265405, 0.48043427, -0.73609775, 2.0879183
1565633163891, 11.457404, 6.9862723, -8.351434, -3.5661843, 2.1954815, 0.4463458, -0.74461985, 2.0165455
1565633163900, 11.568794, 7.1635036, -8.353828, -3.5685792, 2.12312, 0.41864893, -0.76272935, 1.9366508
1565633164019, 11.596738, 7.31918, -8.250843, -3.5829494, 2.0432777, 0.38562572, -0.76592517, 1.8546255
1565633164024, 11.664715, 7.3790555, -8.303533, -3.558999, 1.9619167, 0.33981937, -0.75420725, 1.7789917
1565633164029, 11.7511425, 7.4054008, -8.418494, -3.5182838, 1.1580899, 0.17576863, 0.5603291, 0.9981528
1565633164038, 9.557441, 5.6570363, -7.1491337, -2.8692336, 1.165799, 0.13315806, 0.64341974, 0.96299905
1565633164040, 9.460381, 5.5444703, -7.0245924, -3.06802, 1.1787506, 0.08948222, 0.72011876, 0.9289106
1565633164042, 9.388217, 5.4295096, -6.9216065, -3.278782, 1.1958556, 0.023435818, 0.79894835, 0.88949585
1565633164047, 9.376406, 5.345684, -6.878496, -3.4679885, 1.2437098, -0.040480047, 0.89375687, 0.86392945
1565633164049, 9.233114, 5.230723, -6.7611403, -3.4895437, 1.28824, -0.10652645, 0.97045594, 0.8404937
1565633164050, 9.24423, 5.3073635, -6.72761, -3.4679885, 1.3286786, -0.16724652, 1.0418286, 0.80747044
1565633164058, 9.087353, 5.1612673, -6.686895, -3.3506324, 1.3835145, -0.23009712, 1.123854, 0.773382
1565633164059, 9.021617, 5.1900077, -6.686895, -3.1207106, 1.4350674, -0.27696875, 1.1930962, 0.74781567
1565633164069, 8.757167, 4.90979, -6.710845, -2.7470875, 1.4781514, -0.3174488, 1.2506205, 0.721184
1565633164070, 8.560401, 4.634363, -6.6653395, -2.7159522, 1.5282005, -0.34940675, 1.3070794, 0.7105314
1565633164078, 8.335279, 4.4906616, -6.595884, -2.4093897, 1.5671695, -0.38029942, 1.3507553, 0.69774824
1565633164079, 8.248158, 4.3301954, -6.6581545, -2.2249732, 1.5908865, -0.40373522, 1.3720607, 0.69668293
1565633164090, 7.980831, 4.0978785, -6.5791187, -1.9016455, 1.6009606, -0.41438788, 1.3848438, 0.68816084
1565633164092, 7.8585825, 3.9445972, -6.598279, -1.6310084, 1.6111722, -0.4165184, 1.3912354, 0.69774824
1565633164098, 7.8455405, 4.023633, -6.5623536, -1.5160475, 1.5974336, -0.4111921, 1.3741912, 0.7030745
1565633164100, 7.8122277, 3.8679566, -6.67971, -1.2046949, 1.5717214, -0.4048005, 1.3422332, 0.7105314
1565633164107, 7.594617, 3.772156, -6.5407987, -0.8167017, 1.522744, -0.38136467, 1.2911005, 0.71159667
1565633164108, 7.712874, 3.774551, -6.686895, -0.72569096, 1.4762924, -0.35473305, 1.2314457, 0.73290193
1565633164120, 7.7034106, 3.7697608, -6.6916847, -0.5939649, 1.4095961, -0.32490566, 1.1526161, 0.7435546
1565633164122, 7.7948723, 3.7338357, -6.8186207, -0.57001466, 1.3649114, -0.30253512, 1.0929613, 0.7595336
1565633164130, 7.818642, 3.796106, -6.8186207, -0.4766089, 1.3100423, -0.26844665, 1.0088054, 0.7914915
1565633164132, 8.003209, 3.9733377, -6.935977, -0.39517823, 1.244873, -0.2396845, 0.92038846, 0.8032094
1565633164139, 8.210977, 4.1864944, -7.0509377, -0.42152345, 1.1913415, -0.21731395, 0.83516735, 0.8213189
1565633164140, 8.315619, 4.3349857, -7.084468, -0.40954837, 1.1189035, -0.1587244, 0.737163, 0.8266452
1565633164149, 8.608488, 4.646338, -7.2425394, -0.25147706, 1.050293, -0.10972224, 0.6412892, 0.8245147
1565633164150, 8.770358, 4.8523097, -7.2976246, -0.34488282, 0.97961134, -0.06178534, 0.54648066, 0.81066626
1565633164163, 9.094252, 5.2594633, -7.4101906, -0.364043, 0.92142236, -0.02876214, 0.45060685, 0.8032094
1565633164165, 9.341174, 5.48699, -7.5395217, -0.55324954, 0.87730914, 0.0053263223, 0.37390783, 0.793622
1565633164169, 9.442778, 5.6187162, -7.5395217, -0.8669971, 0.83522373, 0.020240024, 0.3121225, 0.77444726
1565633164171, 9.717807, 5.879773, -7.647298, -1.1759547, 0.7900967, 0.03195793, 0.26525086, 0.7435546
1565633164179, 9.949803, 6.0617948, -7.7335186, -1.5639478, 0.75483364, 0.027696876, 0.22796659, 0.7190535
1565633164181, 10.227779, 6.382727, -7.8029737, -1.7268091, 0.73680806, 0.024501082, 0.22903186, 0.69987875
1565633164189, 10.462628, 6.5000834, -7.9538603, -1.9878663, 0.7139005, 0.007456851, 0.21837921, 0.67963874
1565633164194, 10.74436, 6.7635355, -8.104747, -2.0022364, 0.6724967, 0.010652645, 0.21837921, 0.6359629
1565633164200, 10.900186, 6.835386, -8.260423, -1.9639161, 0.63987374, 0.007456851, 0.21411815, 0.60293967
1565633164201, 11.237607, 7.067703, -8.514295, -1.9591261, 0.61956006, 0.008522116, 0.19813919, 0.58696073
1565633164211, 11.477259, 7.082073, -8.832832, -1.8848804, 0.58410114, 0.013848438, 0.19707392, 0.5496765
1565633164212, 11.707342, 7.201824, -9.05557, -1.7866846, 0.5693278, 0.03834952, 0.18855181, 0.535828
1565633164223, 11.836849, 7.2521195, -9.168135, -1.8609302, 0.5452364, 0.049002163, 0.17044231, 0.515588
1565633164225, 12.103176, 7.3527102, -9.410032, -1.9687061, 0.5226412, 0.05752428, 0.14594123, 0.49854377
1565633164229, 12.368741, 7.573052, -9.568104, -2.0213966, 0.49945456, 0.066046394, 0.14274544, 0.47404268
1565633164231, 12.566314, 7.668853, -9.740545, -2.0549269, 0.49082458, 0.070307456, 0.15233281, 0.4612595
1565633164244, 12.697744, 7.7335186, -9.833951, -2.1722827, 0.465679, 0.07137272, 0.14168017, 0.43782368
1565633164245, 12.840497, 7.932305, -9.845925, -2.2393434, 0.45237252, 0.083090626, 0.13741912, 0.42290998
1565633164251, 12.933679, 8.068821, -9.881851, -2.1267774, 0.4213791, 0.08841695, 0.13315806, 0.3898868
1565633164253, 13.030809, 8.210127, -9.874666, -2.2106032, 0.39338273, 0.08948222, 0.11504856, 0.3653857
1565633164262, 13.253079, 8.490345, -9.922566, -2.2585034, 0.35854656, 0.09161274, 0.094808534, 0.3334278
1565633164264, 13.468445, 8.799302, -9.965676, -2.1579127, 0.3223477, 0.112918034, 0.08841695, 0.28868666
1565633164271, 13.563843, 8.931028, -10.003997, -2.0333717, 0.2774886, 0.1257012, 0.05219796, 0.24181503
1565633164273, 13.721016, 9.177715, -9.970467, -2.1507277, 0.22207889, 0.13741912, 0.025566347, 0.17257284
1565633164282, 14.165384, 9.644744, -10.152488, -2.1363575, 0.17021246, 0.1438107, -0.00958738, 0.09054748
1565633164285, 14.335482, 9.82437, -10.200389, -2.2225783, 0.1595409, 0.1555286, -0.035153728, 0.0053263223
1565633164290, 14.645072, 10.176438, -10.267449, -2.3447242, 0.19555365, 0.15233281, -0.06924219, -0.101200126
1565633164292, 15.011073, 10.403965, -10.514136, -2.5578809, 0.27024144, 0.15126756, -0.080960095, -0.20879184
1565633164301, 15.275379, 10.492581, -10.748848, -2.7758276, 0.36768296, 0.12996227, -0.10652645, -0.3270362
1565633164303, 15.491304, 10.487791, -10.985955, -3.04886, 0.46238616, 0.11717909, -0.101200126, -0.43569317
1565633164311, 15.680101, 10.437495, -11.282937, -3.1015503, 0.5642534, 0.094808534, -0.11930962, -0.5432849
1565633164313, 15.709887, 10.162068, -11.543995, -3.2045362, 0.64674187, 0.07243799, -0.1438107, -0.6263755
1565633164323, 15.860236, 9.924961, -11.920012, -3.3099172, 0.71767604, 0.046871636, -0.15659387, -0.6988135
1565633164325, 15.969211, 9.546548, -12.3559065, -3.3482375, 0.77026427, 0.024501082, -0.16937704, -0.75101143
1565633164331, 16.230461, 9.354947, -12.755875, -3.6332448, 0.8261646, -0.004261058, -0.17470337, -0.80747044
1565633164334, 16.253906, 9.127419, -12.983401, -3.5087037, 0.8650932, -0.03195793, -0.1736381, -0.84688526
1565633164341, 16.440619, 8.962164, -13.316309, -3.5566041, 0.89821506, -0.068176925, -0.17789917, -0.87777793
1565633164343, 16.454628, 8.792117, -13.42648, -3.6308498, 0.9398778, -0.11504856, -0.18109496, -0.9150622
1565633164351, 16.434944, 8.665181, -13.512701, -3.5254688, 0.9661784, -0.14807177, -0.18109496, -0.9374327
1565633164354, 16.532211, 8.552615, -13.742622, -3.3626075, 1.0036238, -0.18535602, -0.17044231, -0.9715212
1565633164360, 16.429142, 8.442444, -13.771363, -2.9985645, 1.0341084, -0.21731395, -0.16724652, -0.99708754
1565633164361, 16.413412, 8.353828, -13.871954, -2.680027, 1.0593175, -0.221575, -0.17150758, -1.0215886
1565633164370, 16.31018, 8.270002, -13.869558, -2.2944288, 1.0763478, -0.21731395, -0.18642128, -1.0375676
1565633164380, 16.277418, 8.253238, -13.915064, -1.7914747, 1.0970078, -0.19600865, -0.18642128, -1.063134
1565633164383, 16.134209, 8.164622, -13.843213, -1.4202466, 1.1245525, -0.15765914, -0.20133498, -1.0950918
1565633164385, 15.708978, 7.9730206, -13.507911, -0.859812, 1.1405699, -0.09374327, -0.2247708, -1.1142666
1565633164392, 15.429477, 7.831714, -13.282779, -0.5484595, 1.1692868, -0.041545313, -0.2428803, -1.1430287
1565633164394, 15.041995, 7.577842, -12.990586, -0.28740236, 1.1878625, 0.03089267, -0.26312032, -1.1579424
1565633164401, 14.477228, 7.3814507, -12.449312, -0.34488282, 1.2119719, 0.101200126, -0.27483824, -1.176052
1565633164402, 13.961192, 7.2329593, -11.934382, -0.41194338, 1.2570612, 0.15339808, -0.29507825, -1.212271
1565633164416, 13.546702, 7.1275783, -11.508069, -0.5245093, 1.2983707, 0.19387813, -0.3121225, -1.2452941
1565633164417, 13.078666, 7.084468, -10.9644, -0.80233157, 1.357684, 0.23435818, -0.31957933, -1.2985574
1565633164423, 12.439682, 6.830596, -10.3393, -1.089734, 1.411611, 0.25033715, -0.34194988, -1.3464943
1565633164424, 11.92624, 6.782696, -9.733359, -1.22146, 1.4706805, 0.26738137, -0.36751625, -1.3986923
1565633164435, 11.673308, 6.715635, -9.441168, -1.4250367, 1.5397679, 0.26312032, -0.39521313, -1.4647386
1565633164436, 11.585741, 6.6677346, -9.307046, -1.7747096, 1.6284131, 0.25992453, -0.43782368, -1.546764
1565633164445, 11.3783455, 6.5216384, -9.101074, -2.0261867, 1.7011557, 0.24181503, -0.4910869, -1.6106799
1565633164446, 11.076121, 6.06419, -9.0004835, -2.2129982, 1.7887344, 0.22903186, -0.5763081, -1.6777915
1565633164455, 10.76385, 5.621111, -8.861572, -2.3950195, 1.8724853, 0.19813919, -0.6498113, -1.7449032
1565633164456, 10.602473, 5.1397123, -8.947793, -2.435735, 1.9267441, 0.17896444, -0.7488809, -1.7662084
1565633164465, 10.447637, 4.687053, -9.002879, -2.4764502, 1.9890484, 0.14061491, -0.8543421, -1.7907095
1565633164466, 10.365737, 4.2296047, -9.074729, -2.684817, 2.045775, 0.10226539, -0.9502159, -1.808819
1565633164476, 10.312947, 3.8583767, -9.18011, -2.682422, 2.0954342, 0.056459017, -1.0471549, -1.8141453
1565633164476, 10.258483, 3.63564, -9.206455, -2.694397, 2.1332312, 0.01917476, -1.123854, -1.8130801
1565633164486, 10.217491, 3.3123121, -9.311836, -2.5914114, 2.157148, -0.010652645, -1.1867046, -1.8013622
1565633164488, 10.169876, 3.0847852, -9.364527, -2.4932153, 2.171834, -0.0479369, -1.2357068, -1.7853832
1565633164493, 10.140256, 2.8596535, -9.4507475, -2.308799, 2.1776352, -0.083090626, -1.2740563, -1.7640779
1565633164495, 10.237972, 2.7015822, -9.618399, -2.2369483, 2.1719012, -0.10759171, -1.2815131, -1.7502295
1565633164505, 10.161212, 2.5315359, -9.584868, -2.2297633, 2.1447618, -0.1470065, -1.2751216, -1.7182716
1565633164507, 10.131859, 2.3471193, -9.6686945, -1.9136207, 2.1121953, -0.18216023, -1.2602079, -1.6852484
1565633164515, 10.192522, 2.2249732, -9.73815, -2.0261867, 2.0652974, -0.19387813, -1.2367721, -1.6426378
1565633164516, 10.089176, 2.0812721, -9.72378, -1.705254, 2.015364, -0.20772657, -1.2090752, -1.598962
1565633164525, 9.959521, 1.9567311, -9.644744, -1.5304176, 1.9645256, -0.23222765, -1.180313, -1.5531555
1565633164527, 9.792538, 1.829795, -9.529783, -1.3148658, 1.8983567, -0.24927188, -1.1366372, -1.4998924
1565633164535, 9.843247, 1.8489552, -9.606423, -1.089734, 1.8351406, -0.2545982, -1.1014835, -1.4455639
1565633164537, 9.626602, 1.7818946, -9.407638, -0.9963282, 1.7746001, -0.26205507, -1.0588728, -1.3997575
1565633164543, 9.575033, 1.8058448, -9.369317, -0.79754156, 1.7113526, -0.26312032, -1.0173275, -1.3507553
1565633164545, 9.414335, 1.81782, -9.19927, -0.83586186, 1.6510515, -0.25566345, -0.9757822, -1.3070794
1565633164554, 9.287008, 1.9591261, -9.048384, -0.732876, 1.5926989, -0.25992453, -0.92997587, -1.2665994
1565633164557, 9.144897, 2.047742, -8.892708, -0.5963599, 1.531817, -0.2609898, -0.8788432, -1.2271847
1565633164566, 9.0098915, 2.184258, -8.717872, -0.63707525, 1.4813025, -0.2609898, -0.8213189, -1.2048141
1565633164568, 8.963884, 2.4165747, -8.598121, -0.76401126, 1.4332452, -0.2695119, -0.7637946, -1.1824435
1565633164575, 8.824507, 2.454895, -8.4304695, -0.87897223, 1.400252, -0.28336033, -0.7052051, -1.176052
1565633164576, 8.782207, 2.6201515, -8.3250885, -0.977168, 1.3665878, -0.29614353, -0.64555025, -1.1675298
1565633164584, 8.711603, 2.6536818, -8.241262, -0.9651929, 1.3311126, -0.31638354, -0.5837649, -1.1536814
1565633164585, 8.702817, 2.7782228, -8.181387, -1.0418335, 1.3124667, -0.34514567, -0.5219796, -1.1536814
1565633164595, 8.724028, 2.799778, -8.162227, -1.2837305, 1.298633, -0.37816888, -0.47404268, -1.1483551
1565633164597, 8.652162, 2.8668385, -8.049661, -1.3579761, 1.3045876, -0.4165184, -0.41864893, -1.1632688
1565633164606, 8.62073, 3.0177248, -7.95865, -1.3675562, 1.2977413, -0.43249738, -0.37603834, -1.164334
1565633164608, 8.605412, 2.9865894, -7.965835, -1.2957057, 1.3045175, -0.4495416, -0.330232, -1.1792477
1565633164616, 8.539911, 2.9794044, -7.92033, -1.1496094, 1.3181218, -0.46552056, -0.29507825, -1.1973573
1565633164618, 8.517748, 2.943479, -7.92512, -1.0394385, 1.3216099, -0.48149952, -0.26631612, -1.2016183
1565633164625, 8.501858, 3.03928, -7.8652444, -1.0873389, 1.3337592, -0.49321744, -0.20026971, -1.2229236
1565633164627, 8.394154, 2.8093581, -7.8436894, -1.0226734, 1.3163552, -0.5134575, -0.12250541, -1.2058793
1565633164637, 8.321217, 2.6033864, -7.838899, -1.0083033, 1.3181953, -0.5134575, -0.04261058, -1.2133362
1565633164639, 8.209872, 2.435735, -7.783814, -0.9388477, 1.3017693, -0.52837116, 0.04580637, -1.1888351
1565633164645, 7.9950485, 2.0860622, -7.661668, -0.9316626, 1.2931665, -0.531567, 0.1470065, -1.1696603
1565633164647, 7.8989224, 1.8992506, -7.6185575, -0.86220706, 1.2893225, -0.5411543, 0.24607609, -1.144094
1565633164657, 7.8797293, 1.8154249, -7.6281376, -0.7783814, 1.2950133, -0.5603291, 0.34514567, -1.1153319
1565633164660, 7.742174, 1.5735279, -7.5395217, -0.7879615, 1.302913, -0.5581986, 0.45060685, -1.087635
1565633164666, 7.722012, 1.5687379, -7.5251517, -0.73527104, 1.3103026, -0.5592638, 0.54648066, -1.051416
1565633164668, 7.6349635, 1.4226416, -7.4820414, -0.5364844, 1.3169913, -0.55074173, 0.624245, -1.0205233
1565633164675, 7.6581144, 1.2933106, -7.537127, -0.40715334, 1.3301921, -0.53795856, 0.7105314, -0.98750013
1565633164678, 7.6071754, 1.1352394, -7.5131764, -0.364043, 1.3397796, -0.531567, 0.7755125, -0.95447695
1565633164685, 7.550304, 1.1424243, -7.443721, -0.5412744, 1.343461, -0.5187838, 0.829841, -0.92038846
1565633164687, 7.6211658, 1.1855347, -7.5083866, -0.5484595, 1.3452265, -0.5091964, 0.87990844, -0.8809737
1565633164697, 7.589821, 1.2573853, -7.455696, -0.6610254, 1.3545862, -0.51771855, 0.91186637, -0.85753787
1565633164700, 7.658363, 1.1328443, -7.5251517, -0.859812, 1.3582606, -0.5070659, 0.9491506, -0.82877576
1565633164705, 7.6940055, 1.1615845, -7.558682, -0.84544194, 1.3498334, -0.51665324, 0.95660746, -0.8000136
1565633164708, 7.662256, 1.1400293, -7.5203614, -0.9244776, 1.3381456, -0.5219796, 0.95660746, -0.7765778
1565633164716, 7.775963, 1.099314, -7.6377177, -0.96040285, 1.323498, -0.53476274, 0.9470201, -0.75420725
1565633164718, 7.762156, 1.0418335, -7.6329274, -0.9508228, 1.2960911, -0.5454154, 0.9235843, -0.7275756
1565633164725, 7.842943, 1.1208692, -7.711963, -0.88376224, 1.2629827, -0.5486112, 0.90014845, -0.6956177
1565633164727, 7.9060874, 1.0585986, -7.8029737, -0.7065308, 1.2199585, -0.5400891, 0.8671253, -0.6668556
1565633164735, 7.9235353, 0.9699829, -7.8412943, -0.5963599, 1.160181, -0.52624065, 0.8085357, -0.644485
1565633164737, 8.020934, 0.9053174, -7.95865, -0.41912845, 1.0904651, -0.49960902, 0.7520767, -0.6114618
1565633164745, 8.177196, 0.8095166, -8.135881, -0.13651612, 1.0261163, -0.48469532, 0.69348717, -0.58056915
1565633164747, 8.285351, 0.7759864, -8.246053, -0.21794678, 0.9485532, -0.45167214, 0.63383234, -0.5422196
1565633164755, 8.518415, 0.76401126, -8.47837, -0.31135255, 0.8817443, -0.43782368, 0.5816344, -0.49747851
1565633164756, 8.644129, 0.7113208, -8.610096, -0.28500733, 0.8291091, -0.4250405, 0.5422196, -0.4612595
1565633164765, 8.742753, 0.613125, -8.717872, -0.24189699, 0.76292944, -0.40053943, 0.50600064, -0.406931
1565633164768, 8.97072, 0.59156984, -8.950189, -0.1341211, 0.7167362, -0.3749731, 0.4878911, -0.36751625
1565633164777, 9.085268, 0.69695073, -9.057964, -0.098195806, 0.6614983, -0.3387541, 0.46978164, -0.31957933
1565633164779, 9.254903, 0.55803955, -9.237591, 0.09340577, 0.605775, -0.30253512, 0.45593318, -0.25992453
1565633164789, 9.487833, 0.366438, -9.477093, 0.26345217, 0.54390174, -0.25672874, 0.43995422, -0.19068234
1565633164790, 9.576743, 0.13651612, -9.572893, 0.23471193, 0.4884862, -0.20879184, 0.42397526, -0.12357068
1565633164798, 9.761818, 0.045505375, -9.745335, 0.56522465, 0.4466813, -0.1438107, 0.42184472, -0.029827405
1565633164799, 9.901692, -0.12693603, -9.8938265, 0.37362307, 0.41848627, -0.09054748, 0.4048005, 0.05539375
1565633164808, 10.119747, -0.3544629, -10.106983, 0.364043, 0.4174002, -0.034088463, 0.386691, 0.15339808
1565633164810, 10.11568, -0.50534916, -10.099798, 0.2562671, 0.46641067, 0.0127831735, 0.3898868, 0.25566345
1565633164819, 10.354964, -0.61073, -10.336905, 0.026345216, 0.54293907, 0.066046394, 0.39414784, 0.36751625
1565633164821, 10.340676, -0.62031007, -10.32014, -0.19878663, 0.62570304, 0.1107875, 0.3930826, 0.47404268
1565633164828, 10.289099, -0.6730005, -10.260264, -0.37362307, 0.7217849, 0.13635385, 0.39414784, 0.58909124
1565633164829, 10.382746, -0.5748047, -10.346485, -0.6490503, 0.80812865, 0.16831179, 0.37923414, 0.69348717
1565633164839, 10.438808, -0.39996827, -10.391991, -0.9029224, 0.8916295, 0.19920446, 0.33449304, 0.8021441
1565633164841, 10.46154, -0.15567628, -10.403965, -1.0849439, 0.9558521, 0.23542345, 0.28655612, 0.8809737
1565633164849, 10.576195, 0.1939966, -10.497371, -1.2741505, 1.0324441, 0.25992453, 0.22903186, 0.97258645
1565633164850, 10.628449, 0.69216067, -10.487791, -1.5783179, 1.0867467, 0.2695119, 0.1587244, 1.0407634
1565633164859, 10.996357, 1.21188, -10.765614, -1.8848804, 1.1418413, 0.294013, 0.10546118, 1.0982877
1565633164862, 11.41467, 1.829795, -11.031461, -2.2920337, 1.1676644, 0.2908172, 0.06178534, 1.1291803
1565633164867, 11.87918, 2.311194, -11.326048, -2.7375073, 1.1980342, 0.26631612, 0.035153728, 1.1675298
1565633164870, 12.427934, 2.7638526, -11.651771, -3.3242872, 1.2122148, 0.22370553, 0.03195793, 1.1909657
1565633164879, 12.914801, 3.1015503, -11.967913, -3.7338357, 1.2302914, 0.17896444, 0.040480047, 1.216532
1565633164881, 13.239741, 3.410508, -12.15712, -3.9829175, 1.2453835, 0.11930962, 0.06711166, 1.2378373
1565633164888, 13.707754, 3.6500099, -12.571458, -4.0667434, 1.2620026, 0.058589544, 0.12037488, 1.2548815
1565633164891, 14.014763, 3.8320315, -12.839701, -4.1074586, 1.295051, -0.0010652645, 0.17150758, 1.2836437
1565633164897, 14.346321, 3.9398074, -13.194163, -4.026028, 1.3297735, -0.0479369, 0.22796659, 1.3092101
1565633164899, 14.504594, 3.9805226, -13.471986, -3.6116896, 1.3721607, -0.08628642, 0.27164245, 1.3422332
1565633164907, 14.697121, 4.0356083, -13.783338, -3.1207106, 1.4113549, -0.096939065, 0.30679616, 1.3741912
1565633164909, 14.67704, 3.915857, -13.891114, -2.668052, 1.4823111, -0.083090626, 0.34514567, 1.4391723
1565633164917, 14.493928, 3.7242556, -13.871954, -1.9423609, 1.5477196, -0.049002163, 0.3568636, 1.5052186
1565633164931, 14.347001, 3.5494192, -13.852794, -1.1567944, 1.6209561, 0.017044231, 0.35792887, 1.5808525
1565633164933, 14.149266, 3.5254688, -13.6923275, -0.5412744, 1.6767942, 0.12144015, 0.31957933, 1.6415725
1565633164936, 14.050689, 3.4775686, -13.613292, -0.081430666, 1.7668551, 0.22370553, 0.26738137, 1.73212
1565633164938, 13.822403, 3.1231055, -13.464801, 0.06466553, 1.8709623, 0.33449304, 0.19813919, 1.8301244
1565633164940, 13.411802, 3.0177248, -13.067227, 0.13172609, 1.9929968, 0.43888897, 0.1107875, 1.9409119
1565633164950, 13.024202, 2.7375073, -12.731924, -0.18441652, 2.118904, 0.5368933, 0.027696876, 2.049569
1565633164952, 12.709937, 2.7231374, -12.403807, -0.5221143, 2.2490053, 0.59228706, -0.056459017, 2.1688783
1565633164960, 12.494416, 3.0009596, -12.080479, -1.0801538, 2.3637602, 0.6412892, -0.13422333, 2.271144
1565633164961, 12.331384, 3.3458424, -11.740386, -1.7411792, 2.4548924, 0.6924219, -0.19920446, 2.3467777
1565633164968, 12.210468, 4.0667434, -11.352393, -1.9184108, 2.513991, 0.7105314, -0.27483824, 2.3957798
1565633164970, 12.267384, 4.7253737, -11.100916, -2.2201831, 2.5659447, 0.74675035, -0.3568636, 2.428803
1565633164978, 12.2361145, 5.357659, -10.720108, -2.4692652, 2.5607479, 0.7435546, -0.43356264, 2.4117587
1565633164980, 12.618363, 6.231841, -10.497371, -3.1925611, 2.5577195, 0.737163, -0.49854377, 2.3979104
1565633164989, 12.997962, 6.943162, -10.336905, -3.7266505, 2.5010552, 0.69668293, -0.567786, 2.3339944
1565633164990, 13.431898, 7.6592727, -10.241104, -4.1074586, 2.415749, 0.6562029, -0.6178534, 2.2413163
1565633164998, 13.779716, 8.284373, -10.051897, -4.495452, 2.3076758, 0.58483016, -0.67324716, 2.1283984
1565633165000, 14.07844, 8.789722, -9.8866415, -4.8163843, 2.2003305, 0.5123922, -0.71585774, 2.0165455
1565633165011, 14.371132, 9.196876, -9.80521, -5.079837, 2.0710824, 0.42397526, -0.76059884, 1.8791265
1565633165012, 14.508607, 9.481883, -9.707015, -5.134922, 1.9367744, 0.33662358, -0.7914915, 1.7353158
1565633165020, 14.440014, 9.613608, -9.551338, -4.9864306, 1.8103435, 0.2514024, -0.81918836, 1.5947009
1565633165021, 14.349929, 9.651929, -9.522598, -4.6990285, 1.7034245, 0.17150758, -0.8543421, 1.4636734
1565633165029, 14.141332, 9.508228, -9.553733, -4.277505, 1.5883554, 0.113983296, -0.8681905, 1.325189
1565633165031, 13.8008795, 9.223221, -9.558523, -3.7458107, 1.4967136, 0.07989483, -0.89162636, 1.1994878
1565633165039, 13.324953, 8.823253, -9.465117, -3.180586, 1.4185499, 0.06391586, -0.8863, 1.1057445
1565633165041, 12.927585, 8.442444, -9.469908, -2.4836354, 1.3321842, 0.080960095, -0.85753787, 1.0162623
1565633165049, 12.515634, 7.9394903, -9.479487, -1.9351759, 1.2600142, 0.10333065, -0.8319715, 0.9406285
1565633165051, 12.131229, 7.5323367, -9.402847, -1.4202466, 1.1828547, 0.1470065, -0.7755125, 0.8809737
1565633165058, 11.686905, 6.9862723, -9.319021, -0.9651929, 1.1282419, 0.2034655, -0.7307714, 0.83516735
1565633165060, 11.325767, 6.543194, -9.22801, -0.5508545, 1.0762203, 0.27377295, -0.66579026, 0.8000136
1565633165069, 10.988194, 6.2845316, -9.0004835, -0.48618898, 1.0271376, 0.34834146, -0.58909124, 0.76592517
1565633165071, 10.584121, 5.8749833, -8.784932, -0.57719976, 0.9784691, 0.39947417, -0.48682585, 0.7488809
1565633165079, 10.320405, 5.625901, -8.614885, -0.80233157, 0.9389894, 0.45060685, -0.38029942, 0.7307714
1565633165080, 10.097914, 5.4462748, -8.432864, -1.092129, 0.8880025, 0.47830373, -0.23755397, 0.7094661
1565633165089, 9.871825, 5.216353, -8.229287, -1.587898, 0.86056626, 0.49321744, -0.10226539, 0.69774824
1565633165090, 9.573319, 4.993616, -7.917935, -2.0046315, 0.8371312, 0.47830373, 0.053263225, 0.6849651
1565633165099, 9.4909525, 4.8499146, -7.7694435, -2.4884255, 0.83793795, 0.45167214, 0.21518342, 0.67218184
1565633165109, 9.3225155, 4.742139, -7.4509063, -2.9841945, 0.8464141, 0.39734364, 0.3653857, 0.65194184
1565633165110, 9.26004, 4.624783, -7.2569094, -3.420088, 0.8992112, 0.34408042, 0.5294364, 0.6402239
1565633165111, 9.256727, 4.550537, -7.213799, -3.5973196, 0.96988106, 0.27164245, 0.6849651, 0.6306366
1565633165120, 9.116845, 4.406836, -6.998247, -3.8368216, 1.0323364, 0.18961707, 0.81066626, 0.6103965
1565633165121, 9.009294, 4.1936793, -6.8952613, -4.0044727, 1.105472, 0.11824436, 0.92038846, 0.60080916
1565633165129, 8.918088, 4.0523734, -6.825806, -4.064348, 1.182456, 0.036218993, 1.0258497, 0.58696073
1565633165130, 8.881119, 4.0499783, -6.7803006, -4.061953, 1.2466184, -0.053263225, 1.1046792, 0.5752428
1565633165140, 8.699599, 3.9853127, -6.672525, -3.908672, 1.3005539, -0.128897, 1.1685951, 0.55606806
1565633165141, 8.614455, 3.9781277, -6.6174393, -3.8200562, 1.3546294, -0.20026971, 1.2293152, 0.53263223
1565633165150, 8.538996, 3.8487966, -6.6916847, -3.6500099, 1.4023769, -0.2727077, 1.2761868, 0.5134575
1565633165151, 8.478392, 3.8487966, -6.696475, -3.4967287, 1.4594737, -0.33981937, 1.3305153, 0.49428272
1565633165160, 8.290971, 3.774551, -6.595884, -3.3147073, 1.4990481, -0.40053943, 1.3592775, 0.4889564
1565633165161, 8.189135, 3.7242556, -6.6461797, -3.0033545, 1.5434417, -0.45593318, 1.3933659, 0.4825648
1565633165170, 8.048179, 3.5134938, -6.672525, -2.811753, 1.5932903, -0.50387007, 1.433846, 0.47830373
1565633165171, 7.9344893, 3.3314724, -6.7707205, -2.4525, 1.6246316, -0.54435015, 1.4530207, 0.48149952
1565633165181, 7.875826, 3.2356715, -6.854546, -2.1387525, 1.6410613, -0.5656554, 1.4604776, 0.49002165
1565633165182, 7.7683964, 3.1255007, -6.8856816, -1.7794995, 1.6609228, -0.5763081, 1.4732608, 0.50600064
1565633165190, 7.6583896, 2.9937747, -6.8689165, -1.583108, 1.6707017, -0.5901565, 1.4732608, 0.5219796
1565633165192, 7.5577245, 2.8404932, -6.8880763, -1.2669654, 1.6719543, -0.588026, 1.4689997, 0.5400891
1565633165200, 7.526483, 2.7710378, -6.9383717, -0.91010743, 1.6452254, -0.56672066, 1.433846, 0.57417756
1565633165202, 7.507394, 2.692002, -6.9862723, -0.55324954, 1.6132262, -0.54648066, 1.3901701, 0.60933125
1565633165215, 7.494477, 2.567461, -7.0365677, -0.24908204, 1.5547173, -0.5070659, 1.3166668, 0.6530071
1565633165217, 7.58307, 2.5914114, -7.1251836, 0.13891114, 1.4797398, -0.46871635, 1.2250541, 0.6849651
1565633165221, 7.6295033, 2.703977, -7.1275783, 0.30895755, 1.411475, -0.42397526, 1.1334413, 0.72651035
1565633165224, 7.730653, 2.8859987, -7.1539235, 0.50534916, 1.3184342, -0.36218992, 1.0205233, 0.7520767
1565633165232, 8.016248, 3.182981, -7.3383403, 0.52690434, 1.2371169, -0.29827404, 0.9129316, 0.7797736
1565633165237, 7.9848976, 3.3051271, -7.237749, 0.6706055, 1.163139, -0.2396845, 0.80747044, 0.8021441
1565633165250, 8.101736, 3.4799635, -7.30481, 0.40954837, 1.1069, -0.18429075, 0.7052051, 0.8330368
1565633165258, 8.26445, 3.7170706, -7.3766603, 0.26345217, 1.055978, -0.14274544, 0.6114618, 0.8490158
1565633165260, 8.491117, 4.045188, -7.4652762, -0.07185059, 1.0080559, -0.11504856, 0.5294364, 0.850081
1565633165261, 8.667527, 4.2367897, -7.551497, -0.3879932, 0.9688995, -0.08948222, 0.43995422, 0.8586032
1565633165264, 8.855461, 4.528982, -7.5946074, -0.47900394, 0.9469542, -0.07563378, 0.38029942, 0.86392945
1565633165265, 9.0669365, 4.744534, -7.699988, -0.6394702, 0.9326468, -0.051132694, 0.32277513, 0.87351686
1565633165271, 9.204341, 4.9529004, -7.726333, -0.70174074, 0.90886784, -0.03195793, 0.25992453, 0.87032104
1565633165272, 9.354361, 5.3097587, -7.656878, -0.8262818, 0.8864876, -0.02130529, 0.2066613, 0.86179894
1565633165281, 9.448141, 5.4199295, -7.668853, -1.0394385, 0.87153345, 0.0031957934, 0.1555286, 0.85753787
1565633165284, 9.814747, 5.927674, -7.7550735, -1.0250684, 0.85769475, 0.020240024, 0.13422333, 0.84688526
1565633165292, 10.04289, 6.1863356, -7.814949, -1.2310401, 0.8278441, 0.034088463, 0.10652645, 0.8202536
1565633165293, 10.366234, 6.6773148, -7.814949, -1.341211, 0.79126924, 0.043675844, 0.08841695, 0.7850999
1565633165301, 10.656684, 6.9886675, -7.8844047, -1.5998731, 0.72770435, 0.05006743, 0.07350325, 0.7222493
1565633165303, 10.9252405, 7.3072047, -7.92512, -1.7771046, 0.67478347, 0.04580637, 0.053263225, 0.6711166
1565633165311, 11.197203, 7.3479204, -8.207732, -2.0046315, 0.63281107, 0.041545313, 0.03195793, 0.6306366
1565633165312, 11.321634, 7.31918, -8.380174, -2.0932472, 0.5889554, 0.03195793, 0.008522116, 0.588026
1565633165321, 11.461574, 7.326365, -8.5598, -2.1028273, 0.562732, 0.023435818, -0.03089267, 0.5613944
1565633165322, 11.587313, 7.2401443, -8.806487, -2.071692, 0.5510023, 0.024501082, -0.066046394, 0.54648066
1565633165332, 11.736991, 7.4054008, -8.859178, -2.1052222, 0.5475967, 0.026631612, -0.10439592, 0.5368933
1565633165333, 11.863822, 7.527547, -8.954978, -1.9734962, 0.53428936, 0.039414786, -0.13848437, 0.51452273
1565633165342, 12.169324, 7.7694435, -9.182506, -1.8465601, 0.52253366, 0.05539375, -0.17576863, 0.4889564
1565633165343, 12.395511, 8.083191, -9.208851, -1.8729054, 0.5083924, 0.082025364, -0.21624869, 0.4527374
1565633165352, 12.655335, 8.406519, -9.273516, -1.8681153, 0.49222365, 0.1107875, -0.25885928, 0.40373522
1565633165354, 13.014814, 8.820857, -9.400452, -1.7914747, 0.4840909, 0.14061491, -0.30040458, 0.35260254
1565633165362, 13.234467, 9.144185, -9.417217, -1.6884888, 0.47961277, 0.18002969, -0.3334278, 0.294013
1565633165363, 13.569628, 9.441168, -9.596844, -1.7028589, 0.4706468, 0.2034655, -0.36325517, 0.21944448
1565633165372, 13.921994, 9.70941, -9.81, -1.8202149, 0.46970797, 0.23222765, -0.38775626, 0.12783173
1565633165374, 14.023229, 9.78605, -9.850716, -1.961521, 0.49020803, 0.2545982, -0.4133226, 0.068176925
1565633165383, 14.285853, 9.951306, -10.0063925, -2.2201831, 0.49256703, 0.257794, -0.41971418, -0.002130529
1565633165385, 14.53512, 10.2387085, -10.059082, -2.2920337, 0.4893844, 0.26312032, -0.40373522, -0.08522116
1565633165392, 14.841735, 10.483001, -10.186019, -2.574646, 0.4918489, 0.25246766, -0.37923414, -0.18535602
1565633165401, 15.194676, 10.760823, -10.358459, -2.7901978, 0.50775135, 0.23222765, -0.33129725, -0.30679616
1565633165403, 15.502878, 10.918895, -10.619517, -2.8883936, 0.54325664, 0.20985709, -0.27696875, -0.41758367
1565633165404, 15.551112, 10.928474, -10.648257, -3.0033545, 0.60471845, 0.19387813, -0.22370553, -0.5273059
1565633165412, 15.720644, 10.799144, -11.048225, -2.907554, 0.6914264, 0.19813919, -0.17789917, -0.6380934
1565633165414, 15.537233, 10.413546, -11.158397, -2.907554, 0.7661881, 0.17896444, -0.14487597, -0.7307714
1565633165423, 15.533105, 10.061478, -11.424244, -3.0871804, 0.8298841, 0.16831179, -0.10865697, -0.80533993
1565633165424, 15.495408, 9.513018, -11.759546, -3.3650026, 0.88609385, 0.14168017, -0.08735169, -0.87032104
1565633165435, 15.416871, 9.101074, -11.924803, -3.5566041, 0.93303365, 0.0958738, -0.07989483, -0.92464954
1565633165436, 15.482527, 8.737032, -12.20502, -3.796106, 0.96189433, 0.05752428, -0.06924219, -0.9576728
1565633165445, 15.479969, 8.356223, -12.451707, -3.8416114, 0.9875858, 0.0031957934, -0.066046394, -0.9853696
1565633165447, 15.38099, 7.95865, -12.585828, -3.8511915, 0.9987194, -0.04580637, -0.07350325, -0.99495703
1565633165454, 15.360712, 7.7478886, -12.74869, -3.65959, 1.0217997, -0.096939065, -0.07882957, -1.0141318
1565633165456, 15.358579, 7.690408, -12.84449, -3.4296682, 1.0517101, -0.14594123, -0.10226539, -1.0365024
1565633165464, 15.376352, 7.6185575, -12.990586, -3.1039455, 1.0813746, -0.17576863, -0.12250541, -1.0599382
1565633165467, 15.298347, 7.5155716, -13.026512, -2.804568, 1.089387, -0.19281286, -0.15446335, -1.0610034
1565633165474, 15.226026, 7.510782, -13.033697, -2.3543043, 1.1268333, -0.2066613, -0.1736381, -1.0940266
1565633165476, 15.097446, 7.3072047, -13.076807, -1.8800904, 1.1455357, -0.20453078, -0.2130529, -1.1068097
1565633165486, 15.035276, 7.302415, -13.060042, -1.4729371, 1.1602407, -0.18535602, -0.23648871, -1.1206582
1565633165488, 14.827741, 7.110813, -12.961846, -1.1352394, 1.1893514, -0.17044231, -0.26312032, -1.1472899
1565633165495, 14.551305, 7.0126176, -12.727135, -0.76401126, 1.1869293, -0.14168017, -0.25992453, -1.1494204
1565633165497, 14.422191, 6.998247, -12.597803, -0.56522465, 1.2138907, -0.10972224, -0.28442562, -1.1749867
1565633165505, 14.127749, 6.9072366, -12.319981, -0.31853762, 1.2174071, -0.066046394, -0.29933932, -1.1781825
1565633165507, 13.77654, 6.840176, -11.958333, -0.05748047, 1.2367703, -0.022370555, -0.3089267, -1.1973573
1565633165514, 13.296122, 6.595884, -11.543995, 0.13172609, 1.2677207, 0.04261058, -0.33129725, -1.2229236
1565633165516, 13.044745, 6.5791187, -11.256593, 0.41194338, 1.3037401, 0.08841695, -0.3685815, -1.2474247
1565633165526, 12.691586, 6.4426026, -10.92608, 0.43589357, 1.3573635, 0.16192019, -0.40373522, -1.2857742
1565633165537, 12.404914, 6.468948, -10.574012, 0.4742139, 1.4177089, 0.20772657, -0.4527374, -1.3273195
1565633165538, 12.169718, 6.4593678, -10.30577, 0.41194338, 1.4884093, 0.26312032, -0.49002165, -1.3805827
1565633165540, 11.903086, 6.4090724, -10.027947, 0.21794678, 1.5664753, 0.31318775, -0.56672066, -1.4263891
1565633165545, 11.721527, 6.11209, -10.001602, -0.06706055, 1.6511949, 0.34088463, -0.6487461, -1.4796523
1565633165546, 11.528621, 5.8917484, -9.903406, -0.34488282, 1.738725, 0.3653857, -0.7435546, -1.5286545
1565633165555, 11.416722, 5.592371, -9.922566, -0.7807764, 1.8238301, 0.36645097, -0.8404937, -1.5765914
1565633165556, 11.368584, 5.352869, -9.951306, -1.2502003, 1.8856574, 0.3568636, -0.92997587, -1.6010925
1565633165565, 11.395066, 5.031936, -10.080638, -1.705254, 1.9585382, 0.3153183, -1.0375676, -1.6309199
1565633165566, 11.368034, 4.6726832, -10.123748, -2.215393, 2.0120492, 0.26738137, -1.1430287, -1.6341157
1565633165577, 11.392926, 4.3325906, -10.265054, -2.3782544, 2.0708816, 0.2034655, -1.2346416, -1.6500946
1565633165579, 11.5967, 4.138594, -10.490186, -2.703977, 2.1278198, 0.13528858, -1.3326459, -1.6532904
1565633165586, 11.645475, 4.006868, -10.605147, -2.663262, 2.1825106, 0.06711166, -1.4231933, -1.6532904
1565633165588, 11.696459, 3.9541774, -10.693763, -2.6105714, 2.2299082, -0.0010652645, -1.4998924, -1.6500946
1565633165596, 11.85781, 3.8535867, -10.8997345, -2.6369166, 2.2697039, -0.0628506, -1.5616777, -1.6458336
1565633165598, 11.821118, 3.7625759, -10.9644, -2.315984, 2.2774332, -0.12037488, -1.5883093, -1.627724
1565633165606, 11.850017, 3.63564, -11.064991, -2.184258, 2.2948265, -0.17044231, -1.603223, -1.6330504
1565633165608, 11.849194, 3.6116896, -11.129656, -1.8681153, 2.2863948, -0.21411815, -1.6053536, -1.6138756
1565633165617, 11.882047, 3.6092947, -11.206297, -1.6046631, 2.280847, -0.24820662, -1.6010925, -1.6053536
1565633165619, 11.744186, 3.427273, -11.163186, -1.2502003, 2.2258258, -0.28122982, -1.5403724, -1.5819178
1565633165626, 11.621687, 3.3865578, -11.081756, -0.8885523, 2.188765, -0.29507825, -1.514806, -1.5520903
1565633165628, 11.458154, 3.2524366, -10.97398, -0.53169435, 2.127651, -0.29188246, -1.4519554, -1.5275892
1565633165636, 11.254926, 3.3386574, -10.746453, -0.20118165, 2.060929, -0.30146983, -1.3912354, -1.490305
1565633165638, 11.090645, 3.187771, -10.621912, 0.12454102, 1.9962854, -0.27696875, -1.3230585, -1.4689997
1565633165646, 10.726954, 3.0249097, -10.284214, 0.3903882, 1.9099444, -0.24607609, -1.2250541, -1.4444987
1565633165648, 10.493288, 3.0991554, -10.003997, 0.6514453, 1.835174, -0.22583607, -1.1323761, -1.4263891
1565633165656, 10.203095, 3.0608351, -9.704619, 0.7448511, 1.7387561, -0.18216023, -1.026915, -1.3912354
1565633165657, 10.040977, 3.0105398, -9.544153, 0.8167017, 1.6613611, -0.1470065, -0.9108011, -1.381648
1565633165666, 9.717202, 2.9003687, -9.237591, 0.82388675, 1.5826669, -0.11504856, -0.8042747, -1.3582122
1565633165667, 9.428929, 2.8524685, -8.957374, 0.73048097, 1.5195563, -0.09374327, -0.7041398, -1.3432984
1565633165675, 9.1954565, 2.818938, -8.729847, 0.6322852, 1.4648824, -0.05965481, -0.60293967, -1.3337111
1565633165677, 8.992595, 2.8452833, -8.519085, 0.44307864, 1.4170235, -0.049002163, -0.5187838, -1.3177321
1565633165686, 8.868815, 2.7566676, -8.428074, 0.15567628, 1.3959607, -0.04261058, -0.4463458, -1.3219932
1565633165690, 8.688058, 2.7518775, -8.238868, -0.17483643, 1.3806555, -0.046871636, -0.38456047, -1.325189
1565633165695, 8.560743, 2.7494826, -8.097562, -0.39517823, 1.3663336, -0.05539375, -0.33662358, -1.3230585
1565633165697, 8.488754, 2.792593, -7.9945755, -0.5891748, 1.3651346, -0.07563378, -0.30999196, -1.3273195
1565633165706, 8.345329, 2.663262, -7.8724294, -0.7592212, 1.3645675, -0.08841695, -0.28975195, -1.3305153
1565633165707, 8.333901, 2.6608667, -7.8436894, -0.92208254, 1.3785238, -0.10226539, -0.28229508, -1.3454291
1565633165717, 8.083496, 2.5698562, -7.599397, -0.99393314, 1.3874431, -0.12250541, -0.28229508, -1.3528858
1565633165718, 8.02599, 2.4836354, -7.537127, -1.1999048, 1.402743, -0.1555286, -0.27483824, -1.3667343
1565633165727, 7.8434706, 2.411785, -7.3694754, -1.1807446, 1.410802, -0.18429075, -0.28229508, -1.3699301
1565633165728, 7.8815207, 2.42376, -7.3934255, -1.2573853, 1.429163, -0.19920446, -0.27057716, -1.3891048
1565633165736, 7.6898026, 2.2441335, -7.2521195, -1.22625, 1.4308183, -0.23329292, -0.2514024, -1.3891048
1565633165737, 7.6013746, 2.1555176, -7.185059, -1.2286451, 1.4258655, -0.2396845, -0.20026971, -1.3912354
1565633165747, 7.486098, 2.0261867, -7.1323686, -1.0322535, 1.418528, -0.257794, -0.16724652, -1.3848438
1565633165748, 7.3180943, 1.7004639, -7.0581226, -0.9196875, 1.403728, -0.25992453, -0.12037488, -1.3741912
1565633165757, 7.2314367, 1.5352076, -7.0126176, -0.87178713, 1.3790748, -0.26631612, -0.07989483, -1.3507553
1565633165758, 7.183471, 1.2406201, -7.0413575, -0.6945557, 1.3558779, -0.2695119, -0.034088463, -1.3283848
1565633165767, 7.09997, 1.101709, -6.983877, -0.6490503, 1.320989, -0.25353295, 0.0031957934, -1.2964269
1565633165768, 7.078525, 0.9580079, -6.9958525, -0.49576905, 1.3019332, -0.25353295, 0.04580637, -1.2761868
1565633165777, 6.999015, 0.8334668, -6.9383717, -0.3879932, 1.271762, -0.2428803, 0.08735169, -1.2452941
1565633165779, 6.995067, 0.65384036, -6.945557, -0.5125342, 1.2275019, -0.23222765, 0.128897, -1.1984226
1565633165788, 7.095805, 0.45744875, -7.065308, -0.47181886, 1.1893265, -0.22264028, 0.16298546, -1.1568772
1565633165789, 7.056641, 0.22992188, -7.038963, -0.44307864, 1.1478144, -0.21624869, 0.20240025, -1.1089402
1565633165797, 7.020417, 0.086220704, -7.0054326, -0.45026368, 1.1105907, -0.2066613, 0.221575, -1.0684602
1565633165799, 7.1271677, 0.011975098, -7.1060233, -0.5484595, 1.0484161, -0.1949434, 0.24181503, -1.0013486
1565633165807, 7.201397, -0.09101075, -7.180269, -0.54366946, 0.9971615, -0.20133498, 0.25885928, -0.9416938
1565633165815, 7.1411495, -0.31853762, -7.086863, -0.81909674, 0.9290108, -0.18322548, 0.257794, -0.87351686
1565633165817, 7.20061, -0.29698244, -7.1563187, -0.74006104, 0.86883664, -0.21944448, 0.23755397, -0.8064052
1565633165819, 7.358469, -0.2083667, -7.30481, -0.86220706, 0.8199866, -0.23435818, 0.23116238, -0.75101143
1565633165828, 7.374289, -0.18441652, -7.31439, -0.9196875, 0.76822704, -0.25033715, 0.22583607, -0.69029135
1565633165830, 7.4344287, -0.102985844, -7.3958206, -0.7496411, 0.7080267, -0.24394555, 0.2034655, -0.6327671
1565633165838, 7.594795, 0.083825685, -7.556287, -0.7592212, 0.6650135, -0.2545982, 0.17789917, -0.588026
1565633165840, 7.791255, 0.364043, -7.7598634, -0.5963599, 0.6271604, -0.2545982, 0.1587244, -0.55074173
1565633165848, 7.8515053, 0.43349856, -7.814949, -0.62031007, 0.58934736, -0.25033715, 0.13315806, -0.51665324
1565633165850, 7.9342885, 0.62989014, -7.8891945, -0.5628296, 0.5607998, -0.26205507, 0.11824436, -0.48149952
1565633165860, 8.157898, 0.6658155, -8.119117, -0.43349856, 0.51244205, -0.24394555, 0.09267801, -0.44101948
1565633165863, 8.260497, 0.86939216, -8.205338, -0.3903882, 0.49466252, -0.2545982, 0.07989483, -0.4165184
1565633165869, 8.468415, 0.8143067, -8.420889, -0.37362307, 0.46717888, -0.24501082, 0.07882957, -0.3898868
1565633165872, 8.687941, 0.8334668, -8.638836, -0.39517823, 0.43598866, -0.23861924, 0.080960095, -0.35579833
1565633165879, 8.975856, 0.9508228, -8.919053, -0.33530274, 0.3982223, -0.22796659, 0.0958738, -0.3121225
1565633165881, 9.10638, 1.0011182, -9.048384, -0.22513184, 0.38049033, -0.21411815, 0.11717909, -0.29188246
1565633165889, 9.277181, 0.977168, -9.223221, -0.2083667, 0.35390034, -0.20240025, 0.1470065, -0.25033715
1565633165892, 9.46593, 0.7759864, -9.433982, -0.040715333, 0.31789353, -0.16831179, 0.17576863, -0.20453078
1565633165899, 9.596395, 0.50774413, -9.580078, 0.23471193, 0.28076136, -0.13209279, 0.21092236, -0.12996227
1565633165901, 9.74486, 0.34967285, -9.735755, 0.23471193, 0.2753374, -0.07882957, 0.25672874, -0.060720075
1565633165910, 9.973834, 0.17962648, -9.970467, 0.18681154, 0.29839197, -0.040480047, 0.29507825, 0.018109497
1565633165913, 10.225356, 0.011975098, -10.224339, 0.14370118, 0.35843736, 0.0010652645, 0.34088463, 0.1107875
1565633165919, 10.374889, -0.29937744, -10.370435, 0.05269043, 0.44267476, 0.04261058, 0.3717773, 0.23648871
1565633165921, 10.570121, -0.45505372, -10.559642, -0.119750984, 0.54344046, 0.083090626, 0.406931, 0.350472
1565633165929, 10.787844, -0.5221143, -10.772799, -0.22752686, 0.64173585, 0.12144015, 0.41758367, 0.47191215
1565633165931, 10.963301, -0.46942386, -10.94045, -0.5292993, 0.7277285, 0.15978967, 0.41758367, 0.57417756
1565633165939, 11.27407, -0.27542725, -11.244617, -0.7664063, 0.81113994, 0.18642128, 0.4016047, 0.67963874
1565633165941, 11.494798, 0.06227051, -11.429033, -1.22625, 0.8973334, 0.19387813, 0.38456047, 0.78723043
1565633165949, 11.939827, 0.57959473, -11.795472, -1.7579445, 0.9607457, 0.17470337, 0.3749731, 0.8671253
1565633165952, 12.399182, 1.0226734, -12.1379595, -2.315984, 0.9984432, 0.13635385, 0.36218992, 0.92038846
1565633165959, 13.0508, 1.5256275, -12.645703, -2.8428884, 1.0293465, 0.08841695, 0.36964676, 0.95660746
1565633165961, 13.608681, 1.8729054, -13.048067, -3.3817677, 1.0887159, 0.0127831735, 0.3930826, 1.015197
1565633165970, 13.877175, 2.0549269, -13.208533, -3.7266505, 1.1463374, -0.07669904, 0.42184472, 1.063134
1565633165971, 14.279749, 2.074087, -13.606107, -3.8056862, 1.226397, -0.15339808, 0.45593318, 1.128115
1565633165979, 14.51429, 2.078877, -13.900694, -3.6212697, 1.3044384, -0.21624869, 0.47830373, 1.1941614
1565633165981, 14.628882, 1.9998415, -14.130616, -3.2141163, 1.3952847, -0.2609898, 0.50813115, 1.2729911
1565633165990, 14.797231, 2.0429518, -14.427598, -2.574646, 1.4817986, -0.27377295, 0.51984906, 1.3603427
1565633165991, 14.891809, 2.0980372, -14.6000395, -2.0501368, 1.5746356, -0.25992453, 0.5251754, 1.4615428
1565633166002, 14.725739, 2.2177882, -14.509029, -1.1903248, 1.6553295, -0.2130529, 0.5251754, 1.555286
1565633166004, 14.633065, 2.3495142, -14.434783, -0.49337405, 1.7303588, -0.14168017, 0.5251754, 1.6426378
1565633166010, 14.646668, 2.5315359, -14.425203, 0.17244141, 1.8024989, -0.026631612, 0.50173956, 1.7310548
1565633166012, 14.683491, 2.6967921, -14.413228, 0.76880133, 1.8779166, 0.10546118, 0.4527374, 1.8194717
1565633166020, 14.703752, 2.8716285, -14.3749075, 1.1472144, 1.9697082, 0.25566345, 0.40266997, 1.9110844
1565633166022, 14.585104, 2.8979738, -14.214441, 1.5088624, 2.0798714, 0.42717105, 0.3270362, 2.0090888
1565633166031, 14.589233, 3.06323, -14.195281, 1.3986914, 2.1884444, 0.5816344, 0.23648871, 2.0964406
1565633166032, 14.359255, 3.2811768, -13.936619, 1.092129, 2.305583, 0.72011876, 0.13741912, 2.1859226
1565633166041, 14.093169, 3.4057178, -13.663587, 0.57001466, 2.4333375, 0.84368944, 0.05219796, 2.2817965
1565633166043, 13.759019, 3.5063088, -13.304334, -0.10538086, 2.5527925, 0.95447695, -0.054328486, 2.3670175
1565633166051, 13.501619, 3.7003052, -12.945081, -1.0130934, 2.6512268, 1.0205233, -0.14487597, 2.4426515
1565633166053, 13.418596, 4.119434, -12.645703, -1.7818946, 2.7196007, 1.051416, -0.2247708, 2.4980452
1565633166063, 13.175083, 4.679868, -12.058924, -2.5027955, 2.7762635, 1.0748519, -0.3206446, 2.5395904
1565633166066, 13.051067, 5.249883, -11.486514, -3.290757, 2.7842212, 1.0599382, -0.4165184, 2.5406556
1565633166070, 13.001098, 5.8103175, -10.966795, -3.8727467, 2.7826545, 1.0290455, -0.49002165, 2.538525
1565633166072, 13.239453, 6.586304, -10.518927, -4.6104126, 2.7439024, 0.9853696, -0.57311225, 2.4959147
1565633166081, 13.243253, 7.175479, -9.929751, -5.029541, 2.6707847, 0.9267801, -0.6412892, 2.4213462
1565633166095, 13.364654, 7.7478886, -9.553733, -5.225933, 2.5915084, 0.86392945, -0.7190535, 2.3350596
1565633166097, 13.401555, 8.186177, -9.148975, -5.374424, 2.5040817, 0.81705785, -0.809601, 2.2242723
1565633166098, 13.552633, 8.51669, -8.950189, -5.5708156, 2.4039803, 0.74461985, -0.88843054, 2.1060278
1565633166101, 13.481133, 8.820857, -8.602911, -5.470225, 2.304008, 0.6828345, -0.98110855, 1.969674
1565633166102, 13.554309, 8.962164, -8.47837, -5.613926, 2.1987276, 0.6114618, -1.0578076, 1.8279938
1565633166114, 13.490339, 8.883128, -8.487949, -5.5708156, 2.1118245, 0.5411543, -1.1217234, 1.7054884
1565633166115, 13.359847, 8.794512, -8.387359, -5.5492606, 2.0229084, 0.48043427, -1.1685951, 1.5797871
1565633166121, 13.237398, 8.547825, -8.50711, -5.4582496, 1.9263757, 0.41438788, -1.1792477, 1.4658039
1565633166123, 12.967934, 8.243657, -8.471185, -5.333709, 1.8376493, 0.350472, -1.1835088, 1.361408
1565633166131, 12.911634, 8.059241, -8.677156, -5.144502, 1.7621531, 0.27803403, -1.1771172, 1.2815131
1565633166133, 12.610905, 7.6209526, -8.710687, -5.007986, 1.6842154, 0.22264028, -1.1611383, 1.1994878
1565633166141, 12.453646, 7.422166, -8.837623, -4.679868, 1.6048113, 0.18642128, -1.1174624, 1.1366372
1565633166144, 12.251444, 6.9886675, -9.057964, -4.382886, 1.5369381, 0.15446335, -1.0727214, 1.0897655
1565633166152, 11.977639, 6.7611403, -9.045989, -3.9901028, 1.4697349, 0.12463594, -1.0226538, 1.0482203
1565633166154, 11.724407, 6.480923, -9.048384, -3.6859353, 1.4007677, 0.10972224, -0.9416938, 1.031176
1565633166162, 11.430601, 6.2510014, -8.983719, -3.297942, 1.3142346, 0.112918034, -0.83729786, 1.0066749
1565633166165, 11.323999, 6.1791506, -8.974138, -3.0847852, 1.2108567, 0.10865697, -0.71159667, 0.9736517
1565633166172, 11.035313, 5.9324636, -8.863968, -2.8309133, 1.1203696, 0.12144015, -0.5613944, 0.9619338
1565633166175, 10.775756, 5.7839723, -8.701106, -2.6369166, 1.0396097, 0.13422333, -0.41225734, 0.94488955
1565633166182, 10.715963, 5.8965383, -8.552615, -2.6297317, 0.96777505, 0.13315806, -0.24074976, 0.92784536
1565633166184, 10.350605, 5.752837, -8.214917, -2.560276, 0.92112917, 0.14594123, -0.058589544, 0.9076053
1565633166192, 10.116639, 5.6857767, -7.95865, -2.5842261, 0.90057254, 0.1438107, 0.11930962, 0.8809737
1565633166195, 9.977709, 5.597161, -7.8436894, -2.5890162, 0.92216104, 0.13848437, 0.30360037, 0.85966843
1565633166202, 9.807057, 5.5468655, -7.577842, -2.8261232, 0.9647038, 0.11930962, 0.46019423, 0.83942837
1565633166206, 9.758995, 5.4366946, -7.429351, -3.2380664, 1.0081984, 0.08522116, 0.6103965, 0.7978831
1565633166212, 9.663751, 5.415139, -7.2545147, -3.3817677, 1.0893093, 0.04261058, 0.76485986, 0.77444726
1565633166213, 9.450527, 5.237908, -7.055728, -3.4775686, 1.152818, -0.0010652645, 0.8809737, 0.7435546
1565633166222, 9.261063, 5.134922, -6.8186207, -3.5925295, 1.2090532, -0.05006743, 0.9800433, 0.70627034
1565633166225, 9.179745, 5.0439115, -6.744375, -3.652405, 1.2681484, -0.10226539, 1.0684602, 0.67537767
1565633166232, 9.1938305, 5.087022, -6.6916847, -3.7242556, 1.3104507, -0.14913702, 1.1366372, 0.6348976
1565633166236, 9.015001, 4.9529004, -6.5623536, -3.6979103, 1.3562185, -0.21731395, 1.1994878, 0.5944176
1565633166246, 8.9478245, 4.926555, -6.495293, -3.6883302, 1.3927155, -0.27377295, 1.2495552, 0.55074173
1565633166247, 8.806385, 4.7325587, -6.456973, -3.6691701, 1.4342043, -0.32277513, 1.3017532, 0.50813115
1565633166256, 8.751119, 4.615203, -6.5096636, -3.5925295, 1.4745173, -0.38775626, 1.3464943, 0.45912898
1565633166257, 8.693978, 4.387676, -6.622229, -3.532654, 1.512989, -0.44315, 1.3784522, 0.43888897
1565633166266, 8.44928, 3.9685476, -6.607859, -3.4608033, 1.5588175, -0.50387007, 1.4157364, 0.41438788
1565633166268, 8.441132, 3.666775, -6.758745, -3.4823585, 1.5875708, -0.5550028, 1.4306501, 0.406931
1565633166275, 8.2141075, 3.408113, -6.8808913, -2.9171338, 1.6219627, -0.59228706, 1.454086, 0.406931
1565633166276, 8.046695, 3.1398706, -6.947952, -2.572251, 1.6545999, -0.6263755, 1.474326, 0.41438788
1565633166287, 7.9365506, 3.0081446, -6.952742, -2.3662794, 1.6936754, -0.664725, 1.4977618, 0.4282363
1565633166289, 7.8702993, 2.8548634, -7.0341725, -2.076482, 1.7181306, -0.67005134, 1.5190672, 0.44208476
1565633166293, 7.8666534, 2.811753, -7.103628, -1.8753004, 1.7217139, -0.6625945, 1.5190672, 0.46658584
1565633166295, 7.838582, 2.7470875, -7.2257743, -1.2981006, 1.7297966, -0.6711166, 1.5211977, 0.47723848
1565633166306, 7.8128996, 2.818938, -7.223379, -0.9580079, 1.722717, -0.6466155, 1.5169365, 0.49854377
1565633166308, 7.786972, 2.7638526, -7.2545147, -0.60833496, 1.6975586, -0.6103965, 1.4977618, 0.515588
1565633166314, 7.770906, 2.7782228, -7.2545147, -0.20118165, 1.6556883, -0.57098174, 1.4615428, 0.52837116
1565633166316, 7.881318, 2.8620484, -7.34313, -0.047900394, 1.6151922, -0.531567, 1.4263891, 0.5400891
1565633166326, 7.9186826, 2.816543, -7.4006104, 0.059875492, 1.5517186, -0.4857606, 1.3699301, 0.5432849
1565633166328, 7.852388, 2.806963, -7.33355, 0.0, 1.498517, -0.4612595, 1.3092101, 0.56459016
1565633166335, 7.963957, 2.8955786, -7.417376, 0.15088624, 1.4301413, -0.41971418, 1.2367721, 0.58269966
1565633166337, 7.979733, 2.8620484, -7.448511, 0.06706055, 1.3468958, -0.38775626, 1.1419635, 0.5997439
1565633166344, 8.004651, 2.8620484, -7.4748564, 0.098195806, 1.2425523, -0.36751625, 1.0205233, 0.6061355
1565633166346, 8.116364, 3.046465, -7.5203614, 0.19639161, 1.1545, -0.3323625, 0.9044095, 0.6359629
1565633166354, 8.004364, 2.9458742, -7.438931, 0.23231691, 1.0390943, -0.2972088, 0.7616641, 0.6412892
1565633166363, 8.17818, 3.2308815, -7.5083866, 0.26105714, 0.9340098, -0.25672874, 0.62317973, 0.6466155
1565633166365, 8.193407, 3.396138, -7.453301, 0.21555176, 0.8375688, -0.23009712, 0.48149952, 0.64555025
1565633166367, 8.3567295, 3.6691701, -7.5035963, 0.26105714, 0.75008917, -0.17257284, 0.35260254, 0.63915867
1565633166377, 8.417448, 3.8104763, -7.5012016, 0.2562671, 0.68910426, -0.1587244, 0.22796659, 0.6306366
1565633166378, 8.487775, 3.8655617, -7.549102, 0.33290774, 0.63882035, -0.096939065, 0.113983296, 0.62104917
1565633166386, 8.559703, 4.026028, -7.549102, 0.26584718, 0.61735547, -0.05539375, 0.015978966, 0.6146576
1565633166388, 8.70097, 4.1218286, -7.656878, 0.29937744, 0.6045608, -0.004261058, -0.06711166, 0.60080916
1565633166397, 8.997768, 4.380491, -7.8556643, 0.244292, 0.5976352, 0.040480047, -0.12144015, 0.5837649
1565633166399, 9.198138, 4.481082, -8.0305, 0.19160157, 0.61345637, 0.08841695, -0.18748654, 0.5773733
1565633166407, 9.426061, 4.5696974, -8.243657, 0.102985844, 0.6326128, 0.14061491, -0.22796659, 0.57311225
1565633166409, 9.722486, 4.768484, -8.471185, -0.16525635, 0.6438658, 0.19600865, -0.2609898, 0.5550028
1565633166415, 9.845739, 4.631968, -8.684341, -0.2562671, 0.6542129, 0.22796659, -0.26525086, 0.55287224
1565633166417, 10.165723, 4.655918, -9.0148535, -0.62989014, 0.66013485, 0.25353295, -0.25885928, 0.551807
1565633166427, 10.3785515, 4.646338, -9.235196, -0.9148975, 0.67232794, 0.27057716, -0.23755397, 0.567786
1565633166429, 10.515956, 4.5002418, -9.426797, -1.21188, 0.6886809, 0.28868666, -0.2034655, 0.59122175
1565633166436, 10.735201, 4.5385623, -9.604029, -1.5519727, 0.70659244, 0.28549087, -0.17150758, 0.62317973
1565633166438, 10.88695, 4.7133985, -9.690249, -1.5519727, 0.73576003, 0.30360037, -0.13102753, 0.65726817
1565633166447, 11.078086, 5.024751, -9.75252, -1.5376027, 0.7434798, 0.32384038, -0.08628642, 0.66365975
1565633166449, 11.353609, 5.3097587, -9.910591, -1.5783179, 0.7648614, 0.33449304, -0.0628506, 0.6849651
1565633166455, 11.60839, 5.7552323, -9.917776, -1.8082398, 0.75413275, 0.34621096, -0.036218993, 0.6689861
1565633166458, 11.958833, 6.2701616, -10.0063925, -1.8896705, 0.750099, 0.36325517, -0.00958738, 0.6562029
1565633166465, 12.187685, 6.6821046, -9.987232, -2.0357666, 0.7400361, 0.3685815, 0.023435818, 0.6412892
1565633166467, 12.389634, 6.9790874, -10.023157, -2.0812721, 0.7061691, 0.37390783, 0.041545313, 0.59761333
1565633166475, 12.706898, 7.36708, -10.092612, -2.308799, 0.6640495, 0.37284255, 0.05752428, 0.54648066
1565633166477, 13.005578, 7.776629, -10.150093, -2.3758595, 0.62720287, 0.37603834, 0.058589544, 0.49854377
1565633166485, 13.3000965, 8.200547, -10.188414, -2.4165747, 0.57334095, 0.38029942, 0.058589544, 0.4250405
1565633166487, 13.636597, 8.52148, -10.3512745, -2.4884255, 0.5201044, 0.3834952, 0.04580637, 0.34834146
1565633166495, 13.960665, 8.938213, -10.41115, -2.572251, 0.47172573, 0.3930826, 0.039414786, 0.257794
1565633166497, 14.377223, 9.297466, -10.638678, -2.6608667, 0.43227428, 0.40053943, 0.035153728, 0.1587244
1565633166505, 14.617953, 9.527389, -10.753638, -2.6967921, 0.41423997, 0.40906155, 0.03089267, 0.05752428
1565633166507, 14.846681, 9.627979, -10.957214, -2.7686427, 0.4336621, 0.43036684, 0.023435818, -0.0479369
1565633166518, 15.01172, 9.651929, -11.1104965, -2.9578493, 0.465975, 0.43675843, 0.022370555, -0.16085494
1565633166519, 15.19321, 9.496253, -11.409874, -3.2356715, 0.49544764, 0.43036684, 0.014913702, -0.24501082
1565633166526, 15.0300045, 9.08431, -11.486514, -3.3817677, 0.5243645, 0.42290998, 0.0031957934, -0.30999196
