TimeStamp(epoch),mAccelerometerMagnitude(m/s^2),mAccelerometerX(m/s^2),mAccelerometerY(m/s^2),mAccelerometerZ(m/s^2),mGyroscopeMagnitude(rad/s),mGyroscopeX(rad/s),mGyroscopeY(rad/s),mGyroscopeZ(rad/s) 
1565632573695, 5.075912, 4.2990603, -2.0309765, -1.7771046, 2.7825248, -1.6948358, -1.7662084, 1.3230585
1565632573699, 7.5761313, 6.1959157, -4.3301954, 0.50774413, 2.8418884, -1.6245283, -1.9164108, 1.3283848
1565632573699, 7.9968243, 6.454578, -4.5696974, 1.1855347, 2.906166, -1.5616777, -2.0719395, 1.3092101
1565632573699, 10.03643, 7.937095, -5.494175, 2.7470875, 2.958198, -1.4615428, -2.227468, 1.2857742
1565632573699, 10.449052, 8.076006, -5.4175344, 3.8224514, 3.012833, -1.365669, -2.3542345, 1.2921658
1565632573700, 9.977786, 7.9562554, -5.5468655, 2.3423293, 3.0472355, -1.2793826, -2.4469125, 1.28897
1565632573700, 10.188812, 7.95865, -5.5396805, 3.1278956, 3.065305, -1.2058793, -2.4916537, 1.3166668
1565632573700, 9.659186, 7.7287283, -5.621111, 1.4034815, 3.0935311, -1.1867046, -2.5023062, 1.3784522
1565632573701, 9.48833, 7.6233473, -5.489385, 1.334026, 3.0601642, -1.180313, -2.4309335, 1.4359765
1565632573701, 9.428665, 7.585027, -5.5947657, 0.2562671, 3.040118, -1.24849, -2.3094933, 1.5329156
1565632573701, 9.500121, 7.563472, -5.6809864, -0.87897223, 3.0378585, -1.3475596, -2.1720743, 1.6415725
1565632573705, 9.59648, 7.673643, -5.738467, -0.52690434, 3.0384169, -1.4945661, -1.9675435, 1.768339
1565632573710, 10.240692, 7.9634404, -6.0330544, -2.2489235, 3.0862906, -1.6628778, -1.780057, 1.8951055
1565632573719, 10.5276785, 8.480764, -6.1575956, -0.9963282, 3.1066344, -1.8322549, -1.5456988, 1.9760655
1565632573719, 11.383803, 9.010064, -6.5360084, -2.3854396, 3.2053041, -2.0367856, -1.3422332, 2.0793962
1565632573727, 11.630452, 9.529783, -6.6198344, -0.7927515, 3.2583423, -2.1731396, -1.1483551, 2.139051
1565632573727, 12.107894, 9.932146, -6.8976564, -0.613125, 3.3249397, -2.3073628, -1.0066749, 2.1720743
1565632573739, 12.532188, 10.360855, -7.0437527, 0.3065625, 3.3643906, -2.3776703, -0.91186637, 2.198706
1565632573739, 12.999334, 10.732083, -7.077283, 1.9279908, 3.369165, -2.4192157, -0.8404937, 2.1891184
1565632573748, 13.587998, 11.244617, -7.3838453, 1.9160157, 3.3489087, -2.4149544, -0.85966843, 2.15503
1565632573748, 14.249487, 11.441009, -7.4030056, 4.164939, 3.2938287, -2.364887, -0.89375687, 2.111354
1565632573759, 14.420291, 11.6948805, -7.6401124, 3.5781593, 3.211961, -2.2775354, -1.0013486, 2.0314593
1565632573759, 15.259407, 12.1307745, -7.5946074, 5.2929935, 3.1138592, -2.159291, -1.1142666, 1.9473034
1565632573768, 15.643663, 12.274476, -7.692803, 5.9061184, 3.0095005, -2.001632, -1.2676647, 1.8556907
1565632573768, 15.709636, 12.288846, -7.441326, 6.356382, 2.8984735, -1.8098843, -1.4242586, 1.7598169
1565632573778, 15.877627, 12.281661, -7.398216, 6.821016, 2.818099, -1.619202, -1.5883093, 1.6724652
1565632573778, 15.525766, 12.0182085, -7.230564, 6.6581545, 2.7451286, -1.4189322, -1.7299895, 1.5904398
1565632573789, 15.047591, 11.596685, -7.1323686, 6.4090724, 2.7150624, -1.2516857, -1.8631475, 1.5275892
1565632573789, 14.496513, 11.191927, -6.9719024, 6.023474, 2.6923153, -1.0961571, -1.9632823, 1.4807175
1565632573798, 13.844391, 10.806329, -6.725215, 5.4462748, 2.6938643, -0.9598033, -2.05383, 1.4551512
1565632573799, 13.262353, 10.391991, -6.6174393, 4.90979, 2.697647, -0.8490158, -2.1134846, 1.4455639
1565632573809, 12.657919, 9.999207, -6.485713, 4.263135, 2.718505, -0.773382, -2.167813, 1.4466292
1565632573809, 12.187235, 9.702225, -6.4210477, 3.6284547, 2.7326474, -0.71798825, -2.2008364, 1.4519554
1565632573819, 11.78102, 9.424402, -6.3228517, 3.1614258, 2.7485719, -0.6668556, -2.2168152, 1.4817829
1565632573819, 11.548747, 9.206455, -6.361172, 2.8548634, 2.7462223, -0.64341974, -2.2093585, 1.4988271
1565632573829, 11.394215, 9.168135, -6.2989016, 2.4692652, 2.7362711, -0.6306366, -2.183792, 1.5233282
1565632573829, 11.177194, 9.137, -6.095325, 2.071692, 2.7107265, -0.62744075, -2.1358552, 1.546764
1565632573839, 11.09406, 9.091495, -6.143225, 1.6381935, 2.6709342, -0.6348976, -2.0676782, 1.567004
1565632573840, 11.037313, 9.074729, -6.1216702, 1.4130616, 2.6503646, -0.66579026, -2.0069582, 1.5978967
1565632573849, 10.992512, 8.952583, -6.2701616, 1.1711646, 2.6264606, -0.67537767, -1.9483687, 1.6266588
1565632573849, 10.847989, 8.734636, -6.353987, 1.0059083, 2.6265795, -0.7073356, -1.901497, 1.6682042
1565632573859, 10.844233, 8.650811, -6.478528, 0.8885523, 2.6061075, -0.7339672, -1.8386464, 1.6948358
1565632573860, 10.98493, 8.727451, -6.67013, 0.098195806, 2.609212, -0.753142, -1.7960359, 1.736381
1565632573870, 11.279884, 8.971744, -6.7395854, 1.1496094, 2.5788116, -0.7414241, -1.7427727, 1.7502295
1565632573871, 11.438283, 9.08431, -6.8018556, 1.4298267, 2.5597064, -0.7414241, -1.7012273, 1.7630126
1565632573879, 11.7614355, 9.347761, -7.0916533, 0.81191164, 2.540858, -0.71479243, -1.6820526, 1.7651432
1565632573880, 12.000115, 9.4507475, -7.0221977, 2.318379, 2.5037951, -0.6775082, -1.6437031, 1.7630126
1565632573889, 12.181744, 9.745335, -7.2425394, 0.98435307, 2.490813, -0.62104917, -1.6564863, 1.7534252
1565632573889, 12.687927, 10.015972, -7.204219, 2.9602442, 2.4296434, -0.5400891, -1.6170714, 1.7310548
1565632573899, 12.724013, 10.229129, -7.4030056, 1.5687379, 2.3823013, -0.4676511, -1.6064188, 1.695901
1565632573900, 13.229493, 10.6746025, -7.3383403, 2.687212, 2.3156128, -0.36964676, -1.5808525, 1.6511599
1565632573910, 13.21665, 10.760823, -7.335945, 2.2513185, 2.2565117, -0.29294774, -1.5584819, 1.6053536
1565632573911, 13.308052, 10.866204, -7.3958206, 2.0812721, 2.2250006, -0.2130529, -1.587244, 1.5446335
1565632573920, 13.303711, 10.722503, -7.2808595, 3.0009596, 2.187547, -0.12783173, -1.587244, 1.4998924
1565632573921, 12.899753, 10.581197, -7.197034, 1.6262183, 2.182936, -0.041545313, -1.6266588, 1.4551512
1565632573930, 13.001316, 10.454261, -6.9790874, 3.3218923, 2.1646411, 0.060720075, -1.6223978, 1.4317155
1565632573931, 12.494991, 10.284214, -6.947952, 1.4441968, 2.1773465, 0.13422333, -1.659682, 1.4029533
1565632573941, 12.516006, 10.221944, -6.758745, 2.5459058, 2.1692388, 0.221575, -1.6522251, 1.3880396
1565632573941, 12.106442, 10.015972, -6.6605496, 1.3723463, 2.1689632, 0.26844665, -1.6511599, 1.3805827
1565632573950, 11.999733, 10.030342, -6.476133, 1.2022998, 2.1529217, 0.30999196, -1.6298546, 1.3720607
1565632573951, 11.837106, 9.802815, -6.543194, 1.099314, 2.1112623, 0.30466563, -1.5819178, 1.3646038
1565632573961, 11.888282, 9.862691, -6.6198344, -0.48618898, 2.0718615, 0.2908172, -1.5382419, 1.3571469
1565632573961, 11.679816, 9.73815, -6.444998, -0.2203418, 2.030273, 0.2695119, -1.4828482, 1.3603427
1565632573972, 11.65594, 9.704619, -6.447393, -0.33530274, 1.9962198, 0.24074976, -1.4349113, 1.3667343
1565632573972, 11.562737, 9.596844, -6.4258375, -0.55324954, 1.9525671, 0.21092236, -1.3741912, 1.3709954
1565632573980, 11.396559, 9.419612, -6.3947024, -0.51013917, 1.9519703, 0.1917476, -1.3379722, 1.4082797
1565632573981, 11.336288, 9.323812, -6.4330225, -0.4406836, 1.923379, 0.18002969, -1.2964269, 1.4093449
1565632573990, 11.48995, 9.510623, -6.4354177, -0.3903882, 1.8970721, 0.16831179, -1.2442288, 1.4221281
1565632573991, 11.581348, 9.575289, -6.5072684, -0.31135255, 1.8697493, 0.18535602, -1.1920309, 1.4285196
1565632574001, 11.883104, 9.802815, -6.715635, -0.11496094, 1.8060477, 0.20453078, -1.1227888, 1.3997575
1565632574001, 12.119282, 10.044712, -6.7803006, 0.09101075, 1.7630469, 0.23755397, -1.0663297, 1.3837786
1565632574011, 12.393357, 10.30098, -6.8880763, 0.19878663, 1.7270976, 0.28442562, -1.0503508, 1.3411679
1565632574018, 12.424227, 10.32972, -6.8904715, 0.4239185, 1.6908985, 0.32597092, -1.0407634, 1.2921658
1565632574018, 12.495531, 10.408755, -6.878496, 0.6945557, 1.6474463, 0.39947417, -1.0162623, 1.2335763
1565632574019, 12.6144085, 10.530901, -6.8952613, 0.82388675, 1.5966251, 0.47297743, -0.98856544, 1.1611383
1565632574032, 12.799392, 10.753638, -6.8808913, 0.9148975, 1.5558482, 0.5550028, -0.96299905, 1.0887003
1565632574033, 12.888365, 10.918895, -6.7850904, 0.92208254, 1.5337862, 0.6530071, -0.9416938, 1.019458
1565632574042, 12.855473, 10.897339, -6.7731156, 0.79754156, 1.5018374, 0.73822826, -0.9076053, 0.9416938
1565632574043, 12.845282, 10.914104, -6.7324004, 0.74724615, 1.4846512, 0.82344943, -0.8681905, 0.8788432
1565632574052, 12.7039385, 10.839859, -6.605464, 0.50534916, 1.4802538, 0.90014845, -0.8607337, 0.8000136
1565632574052, 12.353038, 10.473421, -6.5384035, 0.39278322, 1.484491, 0.99495703, -0.80107886, 0.75633776
1565632574062, 11.551732, 9.848321, -5.9037232, 1.2645704, 1.5226177, 1.0780476, -0.7797736, 0.74035877
1565632574062, 12.06717, 10.126143, -6.480923, -1.0370435, 1.5623496, 1.1323761, -0.8159926, 0.70200926
1565632574072, 12.20737, 10.317744, -6.5216384, 0.17962648, 1.5637349, 1.1707256, -0.8042747, 0.6540724
1565632574073, 12.23886, 10.049502, -6.6916847, -2.0046315, 1.5225015, 1.1515509, -0.7861652, 0.6114618
1565632574082, 12.143532, 10.061478, -6.543194, -1.8489552, 1.4653281, 1.1195929, -0.75101143, 0.57417756
1565632574083, 11.994738, 9.826766, -6.461763, -2.3566992, 1.3808035, 1.0759171, -0.67963874, 0.535828
1565632574094, 12.24179, 9.845925, -6.3947024, -3.4679885, 1.3000151, 1.0173275, -0.6317018, 0.50600064
1565632574095, 11.877833, 9.843531, -6.1504107, -2.5219557, 1.1946602, 0.93636745, -0.5635249, 0.4825648
1565632574103, 12.44058, 9.81958, -6.2989016, -4.3206153, 1.0989549, 0.85753787, -0.51984906, 0.4495416
1565632574103, 11.94705, 9.865086, -6.1767554, -2.694397, 0.99637824, 0.79681784, -0.4314321, 0.41438788
1565632574112, 12.422076, 9.807606, -6.205496, -4.4283915, 0.88215476, 0.6945524, -0.38775626, 0.38136467
1565632574112, 12.238388, 9.956097, -6.2701616, -3.3673975, 0.78561217, 0.62317973, -0.3334278, 0.34301516
1565632574122, 12.371496, 9.939331, -6.2941117, -3.8272414, 0.66821975, 0.52837116, -0.294013, 0.28442562
1565632574123, 12.599777, 9.989627, -6.461763, -4.148174, 0.57304597, 0.44421527, -0.26844665, 0.2428803
1565632574132, 12.06503, 9.721385, -6.454578, -3.0656252, 0.4803457, 0.37710363, -0.2247708, 0.1949434
1565632574133, 12.187009, 9.333391, -6.5551686, -4.29427, 0.4235749, 0.314253, -0.21518342, 0.18535602
1565632574142, 11.381925, 9.086704, -6.5336137, -2.071692, 0.401527, 0.28549087, -0.22264028, 0.1736381
1565632574143, 11.491791, 8.772957, -6.696475, -3.2021413, 0.42739016, 0.26205507, -0.2908172, 0.17150758
1565632574152, 11.113765, 8.801697, -6.631809, -1.4370118, 0.4741444, 0.28229508, -0.3472762, 0.15659387
1565632574153, 11.2521305, 8.648416, -6.9072366, -2.0261867, 0.5531482, 0.29188246, -0.45060685, 0.13315806
1565632574162, 11.383089, 8.734636, -7.1467385, -1.4849122, 0.63877594, 0.3323625, -0.535828, 0.10226539
1565632574162, 11.377799, 8.727451, -7.209009, -1.1472144, 0.73384345, 0.38242993, -0.6221144, 0.07243799
1565632574172, 11.45358, 8.770562, -7.288045, -1.0705738, 0.813648, 0.4346279, -0.6870956, 0.03195793
1565632574172, 11.438455, 8.693921, -7.3551054, -1.0753639, 0.9208686, 0.48469532, -0.78296936, -0.0053263223
1565632574182, 11.404898, 8.600515, -7.4125857, -1.0753639, 1.0093503, 0.5336975, -0.8564726, -0.020240024
1565632574183, 11.444324, 8.557405, -7.5203614, -1.089734, 1.0932386, 0.58056915, -0.9257148, -0.034088463
1565632574192, 11.396399, 8.416099, -7.592212, -1.1855347, 1.1614226, 0.6380934, -0.9683254, -0.06391586
1565632574193, 11.454208, 8.495134, -7.5467067, -1.4418018, 1.1890398, 0.67005134, -0.9800433, -0.066046394
1565632574201, 11.547811, 8.442444, -7.680828, -1.7555494, 1.1871755, 0.7073356, -0.95234644, -0.04580637
1565632574201, 10.157596, 7.199429, -6.8904715, -1.9663111, 1.1639915, 0.7456851, -0.89375687, -0.0053263223
1565632574212, 11.069946, 8.109536, -7.316785, -1.8010547, 1.1738025, 0.76059884, -0.89375687, 0.022370555
1565632574213, 12.150865, 8.789722, -7.94428, -2.6967921, 1.1487414, 0.71479243, -0.8990832, 0.018109497
1565632574223, 12.852562, 8.993299, -8.499925, -3.4727786, 1.0695854, 0.61572284, -0.8745821, -0.002130529
1565632574223, 13.263835, 9.13221, -8.741821, -4.014053, 0.98117334, 0.5049353, -0.8404937, -0.036218993
1565632574233, 13.088793, 9.050779, -8.50711, -4.126619, 0.9214932, 0.38775626, -0.8341021, -0.05539375
1565632574233, 13.070083, 9.14179, -8.372989, -4.140989, 0.8794918, 0.2790993, -0.8319715, -0.058589544
1565632574243, 12.954375, 8.931028, -8.49753, -3.9805226, 0.8595397, 0.18109496, -0.8362326, -0.082025364
1565632574244, 12.542484, 8.634046, -8.356223, -3.5973196, 0.856458, 0.10546118, -0.8447547, -0.09374327
1565632574251, 12.274226, 8.48316, -8.301138, -3.1278956, 0.8921505, 0.05752428, -0.8831042, -0.112918034
1565632574252, 12.011201, 8.320298, -8.265213, -2.5938063, 0.9302516, 0.040480047, -0.92038846, -0.128897
1565632574265, 11.70191, 8.059241, -8.231683, -2.0549269, 0.9828264, 0.023435818, -0.97258645, -0.13954964
1565632574265, 11.820913, 7.903565, -8.4376545, -2.4644752, 1.0964117, 0.036218993, -1.0823087, -0.17150758
1565632574275, 11.527262, 7.688013, -8.57896, -0.4167334, 1.1860685, 0.0628506, -1.1675298, -0.19920446
1565632574276, 11.725569, 7.5131764, -8.772957, -2.0190015, 1.3107138, 0.080960095, -1.2900352, -0.21731395
1565632574285, 11.484509, 7.4054008, -8.777747, 0.07185059, 1.431156, 0.13848437, -1.401888, -0.25246766
1565632574286, 11.455129, 6.9719024, -9.0076685, -1.214275, 1.5766737, 0.17789917, -1.5403724, -0.28549087
1565632574295, 11.311949, 6.8186207, -9.022039, -0.26345217, 1.7081771, 0.25566345, -1.6618125, -0.30146983
1565632574296, 11.161029, 6.622229, -8.983719, -0.086220704, 1.8461995, 0.3206446, -1.7896442, -0.3206446
1565632574302, 11.147346, 6.447393, -9.06994, -0.6562354, 1.9990987, 0.41864893, -1.9238676, -0.34621096
1565632574303, 10.989332, 6.447393, -8.871153, 0.7065308, 2.0756812, 0.5070659, -1.9803267, -0.36005938
1565632574315, 11.191535, 6.4593678, -9.081915, -1.0226734, 2.139493, 0.5784386, -2.0240026, -0.38242993
1565632574315, 10.868566, 6.423443, -8.756192, 0.4406836, 2.1477017, 0.65726817, -2.0048277, -0.4016047
1565632574322, 10.870102, 6.231841, -8.756192, -1.6286134, 2.115591, 0.6849651, -1.9611518, -0.40053943
1565632574322, 10.586037, 6.2797413, -8.468789, -0.9532178, 2.0255256, 0.70840085, -1.8546255, -0.4016047
1565632574332, 10.530524, 6.080955, -8.358619, -2.0118165, 1.9119604, 0.70627034, -1.7331853, -0.39095205
1565632574332, 10.564299, 6.0617948, -8.291558, -2.4716604, 1.7772317, 0.68816084, -1.5925703, -0.38562572
1565632574344, 10.254649, 6.0091043, -8.052056, -2.0525317, 1.5892754, 0.63915867, -1.4050838, -0.37816888
1565632574345, 10.704391, 6.0426345, -7.9730206, -3.8080812, 1.4060123, 0.57311225, -1.2314457, -0.36325517
1565632574352, 10.062006, 6.0570045, -7.6664577, -2.4045997, 1.1780558, 0.50813115, -0.99921805, -0.36218992
1565632574353, 10.647601, 6.0737696, -7.5299416, -4.4475513, 0.9666799, 0.4101268, -0.7914915, -0.37390783
1565632574363, 10.380987, 6.11209, -7.5131764, -3.7362306, 0.7774387, 0.3174488, -0.5901565, -0.39414784
1565632574363, 10.206234, 5.8989334, -7.510782, -3.5997145, 0.60803187, 0.23222765, -0.39947417, -0.39521313
1565632574372, 10.168407, 5.6929617, -7.6401124, -3.551814, 0.49498242, 0.15339808, -0.24181503, -0.40373522
1565632574373, 9.88599, 5.470225, -7.5946074, -3.182981, 0.45369262, 0.07456851, -0.12996227, -0.4282363
1565632574382, 9.661727, 5.1732426, -7.6664577, -2.794988, 0.42562616, 0.01917476, -0.053263225, -0.42184472
1565632574383, 9.678969, 5.005591, -7.917935, -2.435735, 0.4308478, -0.013848438, -0.014913702, -0.43036684
1565632574392, 9.498921, 4.6894484, -8.01613, -1.9950514, 0.4265543, -0.017044231, -0.00958738, -0.4261058
1565632574393, 9.494666, 4.4834766, -8.2197075, -1.575923, 0.40862024, -0.007456851, -0.02130529, -0.4079963
1565632574402, 9.597016, 4.366121, -8.440049, -1.343606, 0.42051643, -0.0031957934, -0.06498113, -0.41545314
1565632574403, 9.589328, 4.1218286, -8.590936, -1.0777588, 0.42856082, 0.029827405, -0.14061491, -0.40373522
1565632574412, 9.53915, 3.786526, -8.722662, -0.7568262, 0.4401154, 0.07137272, -0.22796659, -0.36964676
1565632574413, 9.4824095, 3.4440382, -8.823253, -0.4526587, 0.489695, 0.128897, -0.32597092, -0.34194988
1565632574422, 9.349929, 3.3123121, -8.737032, -0.33769777, 0.57297957, 0.19707392, -0.4463458, -0.30040458
1565632574423, 9.306324, 3.171006, -8.744217, -0.30177248, 0.6768622, 0.25033715, -0.56459016, -0.27696875
1565632574433, 9.222072, 3.302732, -8.600515, -0.41194338, 0.7651662, 0.28975195, -0.66365975, -0.24714136
1565632574433, 9.396623, 3.3937428, -8.737032, -0.6658155, 0.8780403, 0.3387541, -0.77444726, -0.23755397
1565632574443, 9.623242, 3.647615, -8.856783, -0.9268726, 0.9479411, 0.35260254, -0.8490158, -0.23116238
1565632574443, 9.8311825, 3.8895118, -8.945398, -1.22625, 1.0145266, 0.34621096, -0.92464954, -0.23329292
1565632574453, 9.991872, 4.152964, -8.959768, -1.5208374, 1.0612173, 0.34514567, -0.9715212, -0.2514024
1565632574454, 10.2275095, 4.3397756, -9.079519, -1.8250049, 1.0930532, 0.30466563, -1.0183928, -0.2545982
1565632574463, 10.213073, 4.368516, -9.031619, -1.9112257, 1.0996842, 0.28655612, -1.026915, -0.2695119
1565632574463, 10.343656, 4.5816727, -9.043594, -2.0525317, 1.0857354, 0.2545982, -1.0215886, -0.26525086
1565632574473, 10.495807, 4.754114, -9.1202345, -2.0932472, 1.0599258, 0.22264028, -0.99708754, -0.28229508
1565632574474, 10.5351095, 4.905, -9.115445, -1.9591261, 1.0227948, 0.19707392, -0.95660746, -0.30360037
1565632574483, 10.537014, 4.893025, -9.15137, -1.8274, 0.98555213, 0.17150758, -0.9214538, -0.30466563
1565632574484, 10.497026, 4.9529004, -9.101074, -1.6813037, 0.9605036, 0.16937704, -0.8863, -0.3291667
1565632574494, 10.428568, 4.9145803, -9.093889, -1.3795313, 0.9202806, 0.18429075, -0.83729786, -0.33449304
1565632574495, 10.451009, 4.9457154, -9.139395, -1.1112891, 0.8849944, 0.2034655, -0.78723043, -0.34940675
1565632574504, 10.372948, 4.9361353, -9.065149, -1.0274634, 0.8541767, 0.22264028, -0.73822826, -0.36751625
1565632574504, 10.393139, 4.9217653, -9.110655, -0.8885523, 0.8235342, 0.25566345, -0.6860303, -0.37710363
1565632574514, 10.219777, 4.7948294, -8.990904, -0.78556645, 0.8093641, 0.29188246, -0.644485, -0.3930826
1565632574514, 10.103872, 4.6774735, -8.916658, -0.8382569, 0.79588515, 0.32490566, -0.608266, -0.39734364
1565632574524, 10.036143, 4.591253, -8.897498, -0.69216067, 0.7966227, 0.34621096, -0.5901565, -0.4079963
1565632574524, 9.811192, 4.2248144, -8.830438, -0.6586304, 0.8126152, 0.38562572, -0.5954828, -0.39627838
1565632574534, 9.606939, 3.915857, -8.753797, -0.5748047, 0.82090986, 0.41864893, -0.5858955, -0.39414784
1565632574534, 9.404786, 3.776946, -8.595725, -0.5460645, 0.83601004, 0.4463458, -0.5965481, -0.37923414
1565632574544, 9.188505, 3.6332448, -8.420889, -0.5628296, 0.87066585, 0.48469532, -0.62104917, -0.37071204
1565632574546, 9.12205, 3.3386574, -8.452024, -0.7927515, 0.90178895, 0.5187838, -0.64555025, -0.3568636
1565632574554, 8.950721, 3.1566358, -8.329878, -0.87418216, 0.92540896, 0.55074173, -0.6625945, -0.33768883
1565632574555, 8.808999, 2.8740237, -8.270002, -0.97237796, 0.9444914, 0.5656554, -0.69135666, -0.30679616
1565632574564, 8.652348, 2.7614577, -8.111932, -1.1975098, 0.95779896, 0.5699165, -0.7190535, -0.27483824
1565632574565, 8.541728, 2.7518775, -7.951465, -1.4705421, 0.96273863, 0.58269966, -0.7275756, -0.24074976
1565632574574, 8.544228, 2.7758276, -7.92512, -1.5783179, 0.9598843, 0.5635249, -0.7499462, -0.2034655
1565632574575, 8.549719, 2.8309133, -7.8532696, -1.8465601, 0.9546493, 0.5571333, -0.7552725, -0.17470337
1565632574584, 8.603955, 3.03928, -7.783814, -2.0501368, 0.9181387, 0.5336975, -0.7318367, -0.15020229
1565632574586, 8.594478, 3.051255, -7.676038, -2.3734643, 0.87978524, 0.51026165, -0.7052051, -0.12783173
1565632574596, 8.672686, 3.278782, -7.6305327, -2.4980054, 0.82301384, 0.479369, -0.6593987, -0.112918034
1565632574596, 8.81267, 3.515889, -7.606582, -2.7279274, 0.7747234, 0.4527374, -0.6221144, -0.09054748
1565632574605, 8.811835, 3.5542092, -7.4964113, -2.9698243, 0.7084169, 0.406931, -0.57098174, -0.101200126
1565632574605, 8.9062605, 3.788921, -7.3694754, -3.2644117, 0.6296722, 0.35792887, -0.51026165, -0.08948222
1565632574616, 8.949752, 3.9254372, -7.33355, -3.302732, 0.5604476, 0.30679616, -0.46339005, -0.07243799
1565632574616, 8.982719, 3.9422023, -7.34313, -3.3506324, 0.46768144, 0.23435818, -0.39947417, -0.06498113
1565632574625, 8.984071, 3.9661524, -7.2736745, -3.4751735, 0.38979656, 0.18855181, -0.33449304, -0.06711166
1565632574626, 8.981138, 3.9565725, -7.2832546, -3.4584084, 0.33009794, 0.12463594, -0.30040458, -0.056459017
1565632574635, 8.886802, 3.9134622, -7.2521195, -3.3266823, 0.26293048, 0.07882957, -0.24820662, -0.036218993
1565632574636, 8.836213, 3.896697, -7.28565, -3.1326857, 0.1940244, 0.033023197, -0.18961707, -0.024501082
1565632574645, 8.786959, 4.0044727, -7.2808595, -2.8572583, 0.14835507, 0.007456851, -0.14807177, -0.0053263223
1565632574646, 8.87414, 4.2080493, -7.3096, -2.7590625, 0.12079366, -0.018109497, -0.11930962, -0.0053263223
1565632574655, 8.88776, 4.2439747, -7.3790555, -2.555486, 0.093178675, -0.035153728, -0.08628642, 0.0010652645
1565632574656, 8.889244, 4.282295, -7.407796, -2.4093897, 0.073749855, -0.040480047, -0.060720075, 0.010652645
1565632574666, 8.96465, 4.3349857, -7.486831, -2.3495142, 0.06269695, -0.051132694, -0.036218993, 0.002130529
1565632574666, 9.003251, 4.4691067, -7.4676714, -2.3064039, 0.05019193, -0.049002163, -0.010652645, 0.002130529
1565632574676, 9.006359, 4.366121, -7.5874224, -2.1171973, 0.051519606, -0.05006743, 0.0031957934, 0.011717909
1565632574676, 9.107087, 4.478687, -7.5970025, -2.2728736, 0.066020615, -0.053263225, 0.03195793, 0.022370555
1565632574686, 8.99616, 4.3254056, -7.6137676, -2.0621119, 0.08315206, -0.05965481, 0.049002163, 0.03089267
1565632574687, 9.042362, 4.29427, -7.692803, -2.0357666, 0.091699414, -0.043675844, 0.05539375, 0.058589544
1565632574697, 9.126315, 4.2799, -7.774234, -2.1291726, 0.120308876, -0.0479369, 0.07137272, 0.084155895
1565632574698, 9.124822, 4.2224197, -7.800579, -2.1411476, 0.13065894, -0.049002163, 0.07669904, 0.09374327
1565632574707, 9.196022, 4.3301954, -7.807764, -2.203418, 0.16599336, -0.04261058, 0.096939065, 0.12783173
1565632574707, 8.050389, 3.0943654, -7.1132083, -2.1531227, 0.21360877, -0.020240024, 0.12996227, 0.16831179
1565632574716, 8.910933, 4.24637, -7.6185575, -1.8250049, 0.22290516, -0.0127831735, 0.12783173, 0.18216023
1565632574717, 9.701101, 5.0510964, -7.9969707, -2.1555176, 0.21418706, -0.035153728, 0.113983296, 0.17789917
1565632574727, 10.219851, 5.2762284, -8.358619, -2.5962012, 0.21866223, -0.07137272, 0.12144015, 0.16724652
1565632574727, 10.493296, 5.3552637, -8.528665, -2.9482691, 0.22714126, -0.10972224, 0.13848437, 0.14274544
1565632574737, 10.51079, 5.592371, -8.361013, -3.04886, 0.2570512, -0.16085494, 0.1587244, 0.12250541
1565632574738, 10.498143, 5.709727, -8.322693, -2.8883936, 0.28215837, -0.19068234, 0.18109496, 0.10226539
1565632574747, 10.522488, 5.8007374, -8.298743, -2.8644435, 0.31754708, -0.20559604, 0.22690132, 0.084155895
1565632574748, 10.425784, 5.712122, -8.241262, -2.8548634, 0.3643547, -0.21411815, 0.28549087, 0.07350325
1565632574757, 10.370492, 5.6857767, -8.207732, -2.802173, 0.4170507, -0.24074976, 0.33449304, 0.06391586
1565632574758, 10.462503, 5.585186, -8.337064, -2.9602442, 0.4786121, -0.26205507, 0.3930826, 0.07669904
1565632574767, 10.520495, 5.470225, -8.480764, -2.9722195, 0.53434354, -0.28975195, 0.43995422, 0.08948222
1565632574767, 10.604869, 5.415139, -8.610096, -3.0009596, 0.58694524, -0.30786142, 0.49002165, 0.098004326
1565632574778, 10.565157, 5.254673, -8.703502, -2.8740237, 0.6378052, -0.3291667, 0.53263223, 0.12144015
1565632574778, 10.449839, 5.252278, -8.6077, -2.7422974, 0.6689768, -0.34514567, 0.5550028, 0.14274544
1565632574787, 10.511091, 5.1564775, -8.717872, -2.8093581, 0.70403665, -0.35473305, 0.5837649, 0.17044231
1565632574788, 10.347185, 5.0918117, -8.674761, -2.4261549, 0.7051801, -0.3536678, 0.5773733, 0.19707392
1565632574797, 10.268605, 4.9361353, -8.696317, -2.335144, 0.6975172, -0.35153726, 0.5635249, 0.2130529
1565632574798, 10.230546, 4.9576907, -8.655601, -2.2728736, 0.6810473, -0.34514567, 0.531567, 0.24927188
1565632574807, 10.391281, 5.0271463, -8.784932, -2.3519094, 0.6587806, -0.34408042, 0.49747851, 0.2609898
1565632574808, 10.42997, 5.0199614, -8.832832, -2.3590944, 0.63801247, -0.34621096, 0.45486793, 0.28336033
1565632574818, 10.521697, 5.079837, -8.907078, -2.3590944, 0.6158712, -0.34088463, 0.42397526, 0.28868666
1565632574818, 10.554608, 5.1660576, -8.885523, -2.3998096, 0.6026168, -0.35473305, 0.3834952, 0.30040458
1565632574827, 10.651178, 5.245093, -8.928633, -2.4932153, 0.5673571, -0.3387541, 0.330232, 0.31318775
1565632574828, 10.686329, 5.3169436, -8.954978, -2.3950195, 0.56799376, -0.330232, 0.31318775, 0.33981937
1565632574841, 10.794414, 5.4366946, -8.988508, -2.4836354, 0.54362416, -0.3291667, 0.27696875, 0.3323625
1565632574841, 10.77215, 5.654641, -8.835227, -2.4501052, 0.5250673, -0.3174488, 0.24820662, 0.33662358
1565632574852, 10.948613, 5.860613, -8.892708, -2.5387208, 0.5012021, -0.30466563, 0.22050974, 0.33129725
1565632574853, 11.193721, 6.0306597, -9.022039, -2.7446926, 0.4883805, -0.30040458, 0.2066613, 0.32490566
1565632574862, 11.465237, 6.212681, -9.15137, -3.0177248, 0.49181312, -0.3089267, 0.21837921, 0.314253
1565632574862, 11.029747, 5.4271145, -8.966953, -3.4344583, 0.51553625, -0.28975195, 0.26844665, 0.33129725
1565632574872, 11.39326, 5.858218, -9.251961, -3.1446607, 0.5398327, -0.3057309, 0.2727077, 0.35153726
1565632574872, 12.354982, 6.5551686, -9.80521, -3.67875, 0.580049, -0.35260254, 0.30253512, 0.3472762
1565632574881, 13.194226, 6.825806, -10.423125, -4.3421707, 0.6471427, -0.4293016, 0.36751625, 0.3153183
1565632574882, 13.606207, 6.9551373, -10.777588, -4.5385623, 0.7458502, -0.51771855, 0.44208476, 0.30466563
1565632574888, 13.636019, 6.835386, -10.830278, -4.6822634, 0.8694568, -0.60933125, 0.5390238, 0.30679616
1565632574889, 13.377266, 6.6198344, -10.679393, -4.591253, 0.97197133, -0.6764429, 0.62744075, 0.3057309
1565632574898, 12.868088, 6.337222, -10.43031, -4.0787187, 1.0796238, -0.7233146, 0.7350325, 0.31957933
1565632574899, 12.576591, 6.1743608, -10.360855, -3.5637891, 1.1711686, -0.753142, 0.82557994, 0.350472
1565632574909, 12.522845, 6.016289, -10.492581, -3.2452517, 1.2428606, -0.76485986, 0.9054748, 0.37390783
1565632574909, 12.492565, 5.829478, -10.667418, -2.8788135, 1.2928511, -0.7616641, 0.9683254, 0.3920173
1565632574919, 12.331269, 5.5492606, -10.717712, -2.5291407, 1.3485628, -0.75633776, 1.0333065, 0.42290998
1565632574920, 12.292545, 5.4247193, -10.789563, -2.2944288, 1.3544036, -0.7414241, 1.0450244, 0.43888897
1565632574929, 12.099063, 5.245093, -10.732083, -1.9232007, 1.3590841, -0.6988135, 1.055677, 0.49428272
1565632574930, 11.773731, 4.9696655, -10.574012, -1.453777, 1.303761, -0.6402239, 1.015197, 0.5091964
1565632574939, 11.582731, 4.7325587, -10.504556, -1.1903248, 1.2525091, -0.57098174, 0.97045594, 0.5486112
1565632574940, 11.423889, 4.600833, -10.41115, -0.97237796, 1.1752228, -0.49534798, 0.89162636, 0.5837649
1565632574950, 11.140747, 4.5864625, -10.111773, -0.91250247, 1.0994412, -0.42290998, 0.8042747, 0.61891866
1565632574950, 10.97683, 4.6774735, -9.877061, -1.0274634, 1.0023006, -0.36645097, 0.69135666, 0.6263755
1565632574962, 10.797477, 4.766089, -9.627979, -1.0825489, 0.91676205, -0.3089267, 0.5858955, 0.63383234
1565632574963, 10.690006, 4.8139896, -9.469908, -1.1927198, 0.83589256, -0.25353295, 0.46658584, 0.64555025
1565632574972, 10.512024, 4.9505057, -9.17053, -1.3771362, 0.7577506, -0.20240025, 0.3472762, 0.6423545
1565632574972, 10.178734, 4.9169755, -8.796907, -1.4298267, 0.67977726, -0.15446335, 0.21731395, 0.62531024
1565632574982, 10.017068, 5.0582814, -8.514295, -1.5040723, 0.6423412, -0.10652645, 0.101200126, 0.62531024
1565632574983, 9.91005, 5.1971927, -8.293953, -1.5519727, 0.61015296, -0.06924219, -0.00958738, 0.6061355
1565632574992, 9.871534, 5.372029, -8.095166, -1.7483643, 0.59105766, -0.035153728, -0.099069595, 0.5816344
1565632574993, 9.777901, 5.470225, -7.8748245, -1.9160157, 0.59202355, 0.002130529, -0.17470337, 0.5656554
1565632575002, 9.680806, 5.585186, -7.654483, -1.9830762, 0.58414286, 0.018109497, -0.23435818, 0.53476274
1565632575003, 9.579682, 5.601951, -7.4844365, -2.090852, 0.57240397, 0.04261058, -0.26418558, 0.50600064
1565632575011, 9.522013, 5.6642213, -7.3096, -2.2704787, 0.5600181, 0.043675844, -0.28975195, 0.47723848
1565632575011, 9.596767, 5.841453, -7.201824, -2.4716604, 0.5380651, 0.056459017, -0.29188246, 0.44847634
1565632575021, 9.410286, 5.767207, -6.983877, -2.5530908, 0.50595576, 0.05752428, -0.2876214, 0.41225734
1565632575022, 9.47362, 5.815108, -6.976692, -2.694397, 0.46769962, 0.06178534, -0.26205507, 0.38242993
1565632575033, 9.519528, 5.774392, -7.0245924, -2.816543, 0.4342034, 0.056459017, -0.24394555, 0.35473305
1565632575034, 9.520068, 5.8989334, -6.9240017, -2.8093581, 0.38762307, 0.04261058, -0.21198763, 0.32170987
1565632575041, 9.501788, 5.8103175, -6.9551373, -2.8548634, 0.34727296, 0.033023197, -0.18855181, 0.28975195
1565632575043, 9.536936, 5.841453, -6.9790874, -2.8500733, 0.31938574, 0.03089267, -0.15020229, 0.28016454
1565632575051, 9.66015, 5.8965383, -7.1323686, -2.7710378, 0.2728429, 0.025566347, -0.11504856, 0.24607609
1565632575055, 9.680082, 6.0019193, -7.0916533, -2.7183473, 0.23360646, 0.018109497, -0.080960095, 0.21837921
1565632575061, 9.770932, 5.9875493, -7.2449346, -2.6704469, 0.19693567, 0.02876214, -0.04474111, 0.18961707
1565632575065, 9.765763, 6.0402393, -7.2185893, -2.6033864, 0.17457992, 0.035153728, -0.013848438, 0.17044231
1565632575073, 9.920721, 6.09772, -7.3814507, -2.5985963, 0.14520065, 0.03089267, 0.007456851, 0.14168017
1565632575074, 9.998846, 6.1408305, -7.453301, -2.5914114, 0.127534, 0.037284255, 0.040480047, 0.11504856
1565632575088, 10.118054, 6.12646, -7.6305327, -2.572251, 0.123882525, 0.036218993, 0.07243799, 0.09374327
1565632575089, 10.229123, 6.1887307, -7.695198, -2.668052, 0.11910019, 0.036218993, 0.09374327, 0.06391586
1565632575092, 10.431434, 6.330037, -7.822134, -2.7494826, 0.10427084, 0.03195793, 0.096939065, 0.02130529
1565632575093, 10.4929905, 6.3012967, -7.9466753, -2.692002, 0.12223185, 0.027696876, 0.11824436, -0.013848438
1565632575104, 10.591615, 6.4138627, -7.9921803, -2.6776319, 0.14132732, 0.018109497, 0.13209279, -0.046871636
1565632575105, 10.648839, 6.440208, -8.087981, -2.550696, 0.15511583, 0.026631612, 0.12463594, -0.08841695
1565632575111, 10.723298, 6.5168486, -8.162227, -2.42855, 0.18231902, 0.040480047, 0.1257012, -0.1257012
1565632575112, 10.731747, 6.466553, -8.234077, -2.3566992, 0.2093807, 0.049002163, 0.112918034, -0.16937704
1565632575122, 10.780613, 6.5192432, -8.260423, -2.3423293, 0.23488055, 0.05752428, 0.10013486, -0.20453078
1565632575122, 10.764674, 6.444998, -8.327483, -2.2345533, 0.27102345, 0.083090626, 0.09267801, -0.24074976
1565632575132, 10.68422, 6.4426026, -8.265213, -2.0812721, 0.32088694, 0.111852765, 0.07669904, -0.2908172
1565632575133, 10.643199, 6.4114676, -8.243657, -2.0525317, 0.36512628, 0.16724652, 0.07243799, -0.31638354
1565632575144, 10.280249, 6.11209, -8.059241, -1.8369801, 0.39959347, 0.20026971, 0.043675844, -0.34301516
1565632575145, 10.398885, 6.1863356, -8.138277, -1.9064356, 0.4324121, 0.23329292, 0.024501082, -0.36325517
1565632575152, 10.419319, 6.1216702, -8.157437, -2.1315675, 0.47445425, 0.25566345, 0.0127831735, -0.39947417
1565632575153, 10.415112, 6.0210795, -8.236472, -2.0932472, 0.49641895, 0.27164245, -0.0063915867, -0.41545314
1565632575165, 10.28563, 5.9252787, -8.080796, -2.320774, 0.51229143, 0.26738137, -0.013848438, -0.43675843
1565632575169, 10.113851, 5.8677983, -7.879615, -2.4022048, 0.5238946, 0.28868666, -0.01917476, -0.43675843
1565632575172, 9.890276, 5.702542, -7.7287283, -2.3590944, 0.5315937, 0.294013, -0.026631612, -0.44208476
1565632575174, 9.771683, 5.5947657, -7.6353226, -2.4261549, 0.55189645, 0.29933932, -0.015978966, -0.46339005
1565632575183, 9.617078, 5.575606, -7.446116, -2.440525, 0.5688453, 0.314253, -0.010652645, -0.47404268
1565632575185, 9.576103, 5.49178, -7.436536, -2.4980054, 0.57530296, 0.31318775, -0.004261058, -0.4825648
1565632575192, 9.574652, 5.494175, -7.414981, -2.550696, 0.5689729, 0.3174488, 0.015978966, -0.47191215
1565632575194, 9.548023, 5.4438796, -7.407796, -2.579436, 0.58905464, 0.3270362, 0.03089267, -0.4889564
1565632575202, 9.535806, 5.46304, -7.3694754, -2.6033864, 0.6057188, 0.33449304, 0.046871636, -0.5028048
1565632575203, 9.430173, 5.3480787, -7.30481, -2.6393116, 0.62080795, 0.34621096, 0.06391586, -0.5113269
1565632575212, 9.352125, 5.362449, -7.201824, -2.6153615, 0.6305592, 0.35260254, 0.08628642, -0.515588
1565632575213, 9.256771, 5.2666483, -7.1060233, -2.7303224, 0.6434982, 0.35899413, 0.112918034, -0.5219796
1565632575222, 9.215047, 5.247488, -7.067703, -2.7255323, 0.6641631, 0.36751625, 0.14168017, -0.53476274
1565632575223, 9.169296, 5.134922, -6.983877, -2.9889846, 0.671959, 0.37710363, 0.1768339, -0.5273059
1565632575232, 9.194433, 5.0510964, -7.0245924, -3.1111305, 0.6761485, 0.36964676, 0.21411815, -0.52411014
1565632575234, 9.112853, 4.9409256, -6.926397, -3.2644117, 0.6889231, 0.37923414, 0.24607609, -0.51984906
1565632575243, 9.018399, 4.8307548, -6.8689165, -3.288362, 0.69836515, 0.36432046, 0.28336033, -0.52411014
1565632575244, 9.130514, 4.8666797, -6.861731, -3.5494192, 0.692099, 0.34408042, 0.30786142, -0.515588
1565632575253, 9.034606, 4.8139896, -6.758745, -3.5733693, 0.6887542, 0.31318775, 0.3323625, -0.515588
1565632575254, 9.104965, 4.768484, -6.782696, -3.7625759, 0.6829517, 0.26738137, 0.35153726, -0.5209143
1565632575263, 9.025315, 4.687053, -6.71803, -3.788921, 0.6686824, 0.221575, 0.33981937, -0.531567
1565632575264, 9.172718, 4.768484, -6.7395854, -3.9972878, 0.6572509, 0.16618125, 0.34408042, -0.53476274
1565632575274, 9.245469, 4.7636943, -6.7467704, -4.1553593, 0.6507266, 0.1107875, 0.3174488, -0.5571333
1565632575275, 9.064671, 4.6894484, -6.6294146, -4.028423, 0.62875247, 0.058589544, 0.27483824, -0.56245965
1565632575283, 9.079061, 4.5625124, -6.710845, -4.071533, 0.6274905, -0.004261058, 0.23009712, -0.5837649
1565632575285, 8.947532, 4.392466, -6.70366, -3.9781277, 0.6115175, -0.068176925, 0.15339808, -0.588026
1565632575294, 8.980529, 4.368516, -6.809041, -3.899092, 0.6031862, -0.12250541, 0.11930962, -0.5784386
1565632575295, 8.825703, 4.126619, -6.821016, -3.786526, 0.60122925, -0.16618125, 0.07350325, -0.57311225
1565632575303, 8.665887, 3.9254372, -6.8928666, -3.4895437, 0.58545464, -0.19600865, 0.03195793, -0.55074173
1565632575304, 8.605286, 3.9565725, -6.878496, -3.3290772, 0.5854285, -0.22583607, 0.0053263223, -0.5400891
1565632575314, 8.530821, 3.896697, -6.959927, -3.0249097, 0.5786083, -0.25033715, -0.027696876, -0.5209143
1565632575315, 8.538827, 4.0356083, -7.0269876, -2.692002, 0.56154394, -0.24714136, -0.01917476, -0.50387007
1565632575324, 8.512118, 4.028423, -7.084468, -2.4572902, 0.545901, -0.23755397, -0.020240024, -0.4910869
1565632575326, 8.611996, 4.0811133, -7.201824, -2.3758595, 0.52527803, -0.21944448, -0.002130529, -0.47723848
1565632575334, 8.537073, 4.164939, -7.175479, -2.0118165, 0.51077294, -0.19281286, 0.002130529, -0.47297743
1565632575335, 8.567895, 4.26553, -7.1611085, -1.9830762, 0.48477843, -0.16405073, 0.014913702, -0.45593318
1565632575344, 8.591759, 4.277505, -7.199429, -1.9208057, 0.47056362, -0.13422333, 0.01917476, -0.45060685
1565632575347, 8.565122, 4.2751102, -7.194639, -1.8226099, 0.4347806, -0.083090626, 0.03834952, -0.4250405
1565632575354, 8.600394, 4.351751, -7.213799, -1.7292042, 0.42948788, -0.0479369, 0.05752428, -0.42290998
1565632575355, 8.664113, 4.3086405, -7.3072047, -1.7627344, 0.40907404, -0.015978966, 0.070307456, -0.40266997
1565632575364, 8.722039, 4.4283915, -7.2425394, -2.0022364, 0.40380552, 0.011717909, 0.082025364, -0.39521313
1565632575365, 8.719658, 4.351751, -7.2569094, -2.1052222, 0.3969736, 0.036218993, 0.07137272, -0.3888215
1565632575374, 8.891681, 4.416416, -7.3479204, -2.3590944, 0.37817037, 0.041545313, 0.068176925, -0.36964676
1565632575375, 9.063422, 4.481082, -7.438931, -2.5938063, 0.37286386, 0.039414786, 0.056459017, -0.36645097
1565632575385, 9.121795, 4.4475513, -7.462881, -2.7806177, 0.3504542, 0.03089267, 0.04474111, -0.34621096
1565632575386, 9.222043, 4.528982, -7.486831, -2.912344, 0.33560395, 0.017044231, 0.02130529, -0.33449304
1565632575394, 9.328065, 4.5313773, -7.5706573, -3.027305, 0.31541362, -0.002130529, -0.007456851, -0.3153183
1565632575396, 9.427917, 4.624783, -7.585027, -3.1566358, 0.29779047, -0.025566347, -0.03089267, -0.29507825
1565632575404, 9.529395, 4.7086086, -7.6329274, -3.2213013, 0.2838185, -0.051132694, -0.04261058, -0.2759035
1565632575405, 9.511989, 4.754114, -7.5970025, -3.187771, 0.27125785, -0.066046394, -0.05752428, -0.25672874
1565632575415, 9.692479, 4.926555, -7.7143583, -3.187771, 0.25984156, -0.08628642, -0.068176925, -0.23542345
1565632575416, 9.922568, 5.0654664, -7.8436894, -3.3578174, 0.2770466, -0.12250541, -0.08841695, -0.23222765
1565632575424, 9.996243, 5.1924024, -7.913145, -3.2165112, 0.28124595, -0.1470065, -0.09161274, -0.221575
1565632575426, 10.089454, 5.3217335, -7.999366, -3.0799952, 0.30189303, -0.17896444, -0.09267801, -0.2247708
1565632575434, 10.112941, 5.2929935, -8.025711, -3.1374757, 0.30407655, -0.20240025, -0.09374327, -0.2066613
1565632575440, 9.95106, 5.278623, -7.965835, -2.7758276, 0.3004688, -0.21092236, -0.101200126, -0.18855181
1565632575445, 10.077929, 5.3959794, -8.128696, -2.5243506, 0.29210982, -0.21092236, -0.0958738, -0.17789917
1565632575446, 10.121242, 5.5301003, -8.145462, -2.3471193, 0.27836442, -0.1949434, -0.09267801, -0.17576863
1565632575455, 10.344024, 5.716912, -8.341853, -2.1746778, 0.26509678, -0.18429075, -0.08522116, -0.17044231
1565632575456, 10.535465, 5.977969, -8.447234, -1.9758912, 0.23372059, -0.15659387, -0.07243799, -0.15765914
1565632575465, 10.540534, 5.942044, -8.509504, -1.839375, 0.20864232, -0.12676647, -0.023435818, -0.16405073
1565632575466, 10.688081, 6.0091043, -8.648416, -1.8250049, 0.16692393, -0.082025364, 0.02130529, -0.1438107
1565632575476, 10.633844, 6.09293, -8.57417, -1.5615528, 0.15244079, -0.039414786, 0.05006743, -0.13848437
1565632575476, 10.547265, 6.08814, -8.502319, -1.3747413, 0.16212332, 0.018109497, 0.09374327, -0.13102753
1565632575488, 10.580714, 5.997129, -8.600515, -1.4202466, 0.18900865, 0.066046394, 0.128897, -0.12144015
1565632575489, 10.590636, 6.1480155, -8.49753, -1.468147, 0.23589776, 0.11611383, 0.17150758, -0.112918034
1565632575495, 10.574089, 6.215076, -8.413704, -1.5471827, 0.2918222, 0.17470337, 0.19707392, -0.1257012
1565632575496, 10.4666395, 6.1767554, -8.327483, -1.4322218, 0.3224779, 0.21731395, 0.19387813, -0.13848437
1565632575506, 10.682829, 6.3779373, -8.389753, -1.7483643, 0.36058533, 0.25992453, 0.20133498, -0.14807177
1565632575507, 10.960022, 6.615044, -8.509504, -1.9878663, 0.38070503, 0.2876214, 0.17150758, -0.18109496
1565632575516, 11.086189, 6.543194, -8.626861, -2.3806496, 0.40017802, 0.30786142, 0.15339808, -0.20453078
1565632575517, 11.266776, 6.4976883, -8.804092, -2.684817, 0.38652223, 0.29507825, 0.10865697, -0.2247708
1565632575526, 11.351668, 6.3947024, -8.832832, -3.1542408, 0.38451472, 0.28655612, 0.08522116, -0.24181503
1565632575527, 11.226336, 6.0306597, -8.823253, -3.4368532, 0.36641535, 0.26631612, 0.083090626, -0.23755397
1565632575536, 10.971197, 5.640271, -8.739427, -3.4895437, 0.32349855, 0.24394555, 0.05752428, -0.20453078
1565632575538, 11.2643385, 5.6282964, -8.976534, -3.8248463, 0.28232723, 0.20453078, 0.05219796, -0.18748654
1565632575546, 11.513227, 5.6809864, -9.074729, -4.2343946, 0.21203044, 0.14168017, 0.04474111, -0.15126756
1565632575548, 11.796551, 5.611531, -9.366921, -4.4643164, 0.14778408, 0.07456851, 0.0479369, -0.11824436
1565632575557, 11.951565, 5.5301003, -9.481883, -4.727769, 0.107010044, -0.007456851, 0.0628506, -0.08628642
1565632575558, 12.091696, 5.4606447, -9.604029, -4.9145803, 0.12741382, -0.096939065, 0.07669904, -0.03089267
1565632575567, 12.320757, 5.49657, -9.927357, -4.799619, 0.18927865, -0.16724652, 0.08628642, 0.020240024
1565632575568, 12.468437, 5.752837, -10.054293, -4.6128078, 0.29297292, -0.26312032, 0.10865697, 0.06924219
1565632575577, 12.720274, 5.9156985, -10.3393, -4.4619217, 0.35978195, -0.3153183, 0.12357068, 0.12144015
1565632575578, 12.790237, 6.0737696, -10.490186, -4.0811133, 0.4381372, -0.38029942, 0.14168017, 0.165116
1565632575588, 12.825223, 6.2917166, -10.585987, -3.5829494, 0.48041067, -0.39840892, 0.16192019, 0.21411815
1565632575589, 12.886453, 6.4090724, -10.710527, -3.2045362, 0.511176, -0.406931, 0.18322548, 0.24927188
1565632575597, 13.008717, 6.6461797, -10.827884, -2.794988, 0.5319436, -0.39734364, 0.2130529, 0.28229508
1565632575599, 13.110752, 6.9383717, -10.873389, -2.3495142, 0.5291802, -0.3717773, 0.21837921, 0.30679616
1565632575608, 13.145991, 7.216194, -10.818304, -1.9255958, 0.51156217, -0.33662358, 0.23009712, 0.3089267
1565632575609, 13.144049, 7.326365, -10.815908, -1.4513819, 0.49355784, -0.28549087, 0.25033715, 0.3153183
1565632575618, 12.979665, 7.3862405, -10.619517, -1.0681788, 0.46032366, -0.21518342, 0.2545982, 0.3174488
1565632575622, 12.819303, 7.431746, -10.418335, -0.7496411, 0.4152619, -0.13422333, 0.2428803, 0.3089267
1565632575627, 12.627774, 7.5131764, -10.142908, -0.366438, 0.36608693, -0.058589544, 0.2130529, 0.29188246
1565632575629, 12.262782, 7.4964113, -9.704619, -0.0023950196, 0.3088514, 0.054328486, 0.15233281, 0.26312032
1565632575639, 11.948086, 7.429351, -9.354947, 0.21555176, 0.312769, 0.15126756, 0.1107875, 0.25033715
1565632575641, 11.46158, 7.3622904, -8.777747, 0.34009278, 0.33850276, 0.2695119, 0.023435818, 0.2034655
1565632575648, 11.004946, 7.316785, -8.202942, 0.5340894, 0.4370091, 0.39947417, -0.05539375, 0.16831179
1565632575649, 10.718212, 7.3575, -7.7790236, 0.48379397, 0.53696305, 0.5070659, -0.13315806, 0.11611383
1565632575658, 10.479624, 7.3958206, -7.422166, 0.18920656, 0.64106, 0.6018744, -0.21518342, 0.049002163
1565632575660, 10.21069, 7.247329, -7.189849, -0.20118165, 0.73805606, 0.67963874, -0.2876214, -0.00958738
1565632575668, 10.066011, 7.1323686, -7.062913, -0.7544312, 0.812875, 0.72437984, -0.36325517, -0.06391586
1565632575670, 9.732009, 6.8928666, -6.7659307, -1.1927198, 0.8791202, 0.7488809, -0.44847634, -0.10439592
1565632575678, 9.538183, 6.638994, -6.6246243, -1.7363893, 0.9214784, 0.7499462, -0.51665324, -0.14061491
1565632575679, 9.263413, 6.2653713, -6.466553, -2.1770728, 0.94823974, 0.7350325, -0.572047, -0.17789917
1565632575689, 9.112496, 5.997129, -6.4066777, -2.454895, 0.96928823, 0.7137272, -0.6306366, -0.18002969
1565632575691, 9.113081, 5.7935524, -6.4354177, -2.8404932, 0.97244704, 0.680704, -0.6689861, -0.18642128
1565632575698, 9.059709, 5.5157304, -6.449788, -3.171006, 0.967002, 0.64341974, -0.700944, -0.17257284
1565632575700, 9.031868, 5.369634, -6.461763, -3.3147073, 0.94718605, 0.5858955, -0.7275756, -0.15659387
1565632575709, 9.145163, 5.233118, -6.588699, -3.5829494, 0.9364965, 0.52624065, -0.7595336, -0.15233281
1565632575710, 9.082909, 5.127737, -6.5551686, -3.6380348, 0.92833257, 0.4676511, -0.7946873, -0.10759171
1565632575720, 9.197187, 5.158872, -6.6437845, -3.7194655, 0.9196891, 0.4101268, -0.81918836, -0.080960095
1565632575726, 9.223001, 5.144502, -6.7467704, -3.6164796, 0.93126357, 0.350472, -0.8607337, -0.05965481
1565632575730, 9.400464, 5.4582496, -6.8018556, -3.5087037, 0.9470512, 0.30466563, -0.89588743, -0.03834952
1565632575731, 9.559086, 5.6594315, -6.957532, -3.307522, 0.9507466, 0.25246766, -0.91612744, -0.029827405
1565632575739, 9.715137, 5.9372535, -7.0174074, -3.1446607, 0.9608886, 0.21837921, -0.9353022, -0.02876214
1565632575740, 9.975987, 6.229446, -7.1706886, -3.04886, 0.97314864, 0.18109496, -0.9555422, -0.034088463
1565632575748, 10.174818, 6.444998, -7.311995, -2.919529, 0.9563797, 0.13422333, -0.94595486, -0.04261058
1565632575749, 10.276523, 6.605464, -7.3766603, -2.7494826, 0.9439692, 0.094808534, -0.9374327, -0.05752428
1565632575758, 10.35784, 6.7707205, -7.462881, -2.3974147, 0.92539907, 0.09161274, -0.9171927, -0.082025364
1565632575759, 10.401072, 6.8761015, -7.5179667, -2.0932472, 0.9272024, 0.07456851, -0.9193232, -0.094808534
1565632575769, 10.478178, 6.9072366, -7.6161623, -2.0190015, 0.9209148, 0.06924219, -0.9108011, -0.11717909
1565632575770, 10.55385, 7.060518, -7.6496925, -1.7363893, 0.9138076, 0.07350325, -0.902279, -0.12463594
1565632575779, 10.697303, 7.197034, -7.7718387, -1.4944923, 0.90289813, 0.07243799, -0.8873653, -0.15020229
1565632575780, 10.825744, 7.2664895, -7.8891945, -1.468147, 0.8797569, 0.066046394, -0.8586032, -0.18002969
1565632575789, 10.842973, 7.3814507, -7.829319, -1.336421, 0.88526297, 0.07989483, -0.8586032, -0.20026971
1565632575791, 10.8064995, 7.398216, -7.795789, -1.1280543, 0.882925, 0.096939065, -0.84688526, -0.23009712
1565632575799, 10.85295, 7.429351, -7.822134, -1.1855347, 0.8976893, 0.10865697, -0.8490158, -0.27057716
1565632575800, 10.858106, 7.551497, -7.7407036, -0.977168, 0.9092199, 0.13209279, -0.84368944, -0.3121225
1565632575809, 10.875113, 7.599397, -7.7167535, -0.98435307, 0.91264075, 0.1470065, -0.8319715, -0.34514567
1565632575810, 10.761734, 7.5131764, -7.647298, -0.9412427, 0.9169972, 0.16724652, -0.8159926, -0.3834952
1565632575819, 10.594728, 7.3814507, -7.5323367, -1.0130934, 0.9207885, 0.18322548, -0.79255676, -0.4314321
1565632575821, 10.470145, 7.278465, -7.446116, -1.096919, 0.9103387, 0.19068234, -0.757403, -0.4676511
1565632575830, 10.345882, 7.173084, -7.350315, -1.2478052, 0.89745474, 0.18109496, -0.7275756, -0.49321744
1565632575831, 10.329576, 7.165899, -7.31918, -1.334026, 0.8943737, 0.20453078, -0.6870956, -0.53476274
1565632575841, 10.145902, 7.0030375, -7.199429, -1.4370118, 0.87756395, 0.1949434, -0.63915867, -0.56885123
1565632575842, 9.915337, 6.7324004, -7.1156034, -1.5352076, 0.8599172, 0.18429075, -0.60080916, -0.58696073
1565632575851, 9.833971, 6.6485744, -7.0365677, -1.7292042, 0.85204244, 0.18429075, -0.5581986, -0.61678815
1565632575853, 9.683773, 6.4426026, -7.0054326, -1.7866846, 0.84043896, 0.17257284, -0.51771855, -0.63915867
1565632575860, 9.563832, 6.3132715, -6.8737063, -2.088457, 0.82063466, 0.14807177, -0.46552056, -0.6593987
1565632575861, 9.360528, 6.0737696, -6.7683253, -2.2177882, 0.78822446, 0.12144015, -0.40053943, -0.6679208
1565632575872, 9.385079, 5.9540186, -6.816226, -2.4836354, 0.7411508, 0.0777643, -0.3206446, -0.66365975
1565632575874, 9.309486, 5.7648125, -6.837781, -2.5842261, 0.7240421, 0.040480047, -0.24927188, -0.6785734
1565632575881, 9.30007, 5.5780005, -6.943162, -2.6776319, 0.6859162, -0.015978966, -0.17257284, -0.66365975
1565632575882, 9.174207, 5.3792143, -6.9072366, -2.7422974, 0.6702004, -0.05965481, -0.096939065, -0.660464
1565632575891, 9.095819, 5.0846267, -7.067703, -2.6321266, 0.6401885, -0.10013486, -0.027696876, -0.6317018
1565632575892, 8.983326, 4.9792457, -7.038963, -2.5219557, 0.6422847, -0.12250541, 0.034088463, -0.6295713
1565632575901, 8.979811, 4.912185, -7.067703, -2.560276, 0.64472353, -0.15978967, 0.09161274, -0.6178534
1565632575902, 9.044022, 4.7972245, -7.2736745, -2.42376, 0.65207845, -0.18429075, 0.12144015, -0.6135923
1565632575911, 8.887643, 4.670288, -7.182664, -2.3638844, 0.66113454, -0.19920446, 0.15339808, -0.6114618
1565632575912, 8.876961, 4.5002418, -7.3311553, -2.191443, 0.6432433, -0.19813919, 0.16192019, -0.5901565
1565632575922, 8.848652, 4.4762917, -7.3551054, -2.0405567, 0.64300865, -0.21837921, 0.18002969, -0.5773733
1565632575925, 8.838958, 4.311035, -7.462881, -1.961521, 0.63659066, -0.21092236, 0.18961707, -0.5699165
1565632575931, 8.814018, 4.277505, -7.453301, -1.9591261, 0.6335216, -0.22050974, 0.18429075, -0.56459016
1565632575933, 8.7399845, 4.119434, -7.472461, -1.8920655, 0.62798315, -0.22796659, 0.18216023, -0.55606806
1565632575941, 8.628874, 4.028423, -7.438931, -1.7004639, 0.59929436, -0.23222765, 0.17150758, -0.5251754
1565632575943, 8.642331, 3.8727467, -7.537127, -1.698069, 0.5892453, -0.22583607, 0.15765914, -0.5209143
1565632575954, 8.57635, 3.767366, -7.5035963, -1.7483643, 0.5560619, -0.23116238, 0.13315806, -0.4878911
1565632575956, 8.493153, 3.5757644, -7.5131764, -1.7028589, 0.533288, -0.23648871, 0.112918034, -0.4644553
1565632575962, 8.4527445, 3.5757644, -7.4652762, -1.7124391, 0.51874006, -0.24714136, 0.09374327, -0.4463458
1565632575963, 8.472601, 3.4871485, -7.558682, -1.5783179, 0.48896682, -0.23861924, 0.07137272, -0.42077947
1565632575972, 8.342889, 3.2428565, -7.510782, -1.6357985, 0.46350145, -0.25566345, 0.049002163, -0.3834952
1565632575974, 8.357488, 3.319497, -7.479646, -1.698069, 0.43126896, -0.24074976, 0.046871636, -0.35473305
1565632575981, 8.402609, 3.2380664, -7.561077, -1.7172291, 0.4131647, -0.25353295, 0.039414786, -0.32384038
1565632575982, 8.382533, 3.319497, -7.5059915, -1.705254, 0.3878382, -0.24714136, 0.040480047, -0.29614353
1565632575992, 8.459081, 3.4248781, -7.5395217, -1.7268091, 0.37884042, -0.25246766, 0.05539375, -0.27696875
1565632575993, 8.460946, 3.4440382, -7.5131764, -1.8106349, 0.36927202, -0.2545982, 0.08522116, -0.25353295
1565632576001, 8.650546, 3.4799635, -7.688013, -1.9016455, 0.36771843, -0.26205507, 0.13209279, -0.221575
1565632576002, 8.5942955, 3.4943337, -7.6281376, -1.8609302, 0.3757002, -0.26205507, 0.18109496, -0.19920446
1565632576012, 8.543135, 3.535049, -7.537127, -1.9184108, 0.39218807, -0.25885928, 0.24181503, -0.16831179
1565632576014, 8.518693, 3.3266823, -7.568262, -2.0549269, 0.4229194, -0.25992453, 0.30253512, -0.14061491
1565632576022, 8.543393, 3.422483, -7.592212, -1.9064356, 0.4626413, -0.257794, 0.36751625, -0.111852765
1565632576023, 8.473384, 3.302732, -7.5323367, -2.0381618, 0.5128128, -0.26205507, 0.4346279, -0.07350325
1565632576032, 8.501199, 3.2452517, -7.558682, -2.1459377, 0.5497229, -0.26205507, 0.4825648, -0.025566347
1565632576032, 8.537717, 3.0919704, -7.6209526, -2.2920337, 0.5924116, -0.27803403, 0.5230448, 0.008522116
1565632576041, 8.54752, 3.0752053, -7.6329274, -2.311194, 0.6344005, -0.28549087, 0.56459016, 0.046871636
1565632576043, 8.551074, 3.0057497, -7.6281376, -2.42855, 0.6762248, -0.30466563, 0.5965481, 0.09267801
1565632576053, 8.742303, 3.1350808, -7.7574687, -2.5339308, 0.71212673, -0.32810146, 0.6178534, 0.13315806
1565632576054, 8.799219, 3.0608351, -7.781419, -2.7399025, 0.75486743, -0.35899413, 0.6423545, 0.16831179
1565632576063, 8.786007, 3.0033545, -7.783814, -2.7542725, 0.7874776, -0.39627838, 0.64768076, 0.20879184
1565632576064, 8.860655, 3.04407, -7.810159, -2.8716285, 0.8301835, -0.4250405, 0.66152924, 0.26631612
1565632576073, 8.89316, 3.0704153, -7.8341093, -2.8788135, 0.86817294, -0.46978164, 0.6668556, 0.2972088
1565632576074, 9.004601, 3.06323, -7.917935, -3.0009596, 0.91894794, -0.51026165, 0.6775082, 0.3536678
1565632576082, 9.068492, 3.0249097, -8.076006, -2.804568, 0.9624569, -0.5475459, 0.6924219, 0.3834952
1565632576083, 9.161998, 3.1159205, -8.169412, -2.7375073, 1.0134915, -0.5901565, 0.7052051, 0.4261058
1565632576093, 9.139762, 3.0081446, -8.229287, -2.6009912, 1.0792102, -0.62531024, 0.73609775, 0.48149952
1565632576094, 9.149633, 3.0177248, -8.277188, -2.4692652, 1.1116039, -0.63383234, 0.74781567, 0.52411014
1565632576103, 9.188299, 3.1278956, -8.370594, -2.1387525, 1.1635917, -0.6668556, 0.753142, 0.58483016
1565632576104, 9.258488, 3.1398706, -8.49753, -1.9112257, 1.1878501, -0.67537767, 0.74461985, 0.6327671
1565632576113, 9.326115, 3.0656252, -8.638836, -1.7172291, 1.1801808, -0.6508766, 0.7222493, 0.6689861
1565632576114, 9.419911, 3.173401, -8.770562, -1.3196558, 1.1720766, -0.61572284, 0.70840085, 0.70200926
1565632576123, 9.49065, 3.3099172, -8.823253, -1.1256592, 1.167278, -0.58909124, 0.6870956, 0.737163
1565632576124, 9.646188, 3.542234, -8.928633, -0.88376224, 1.1528636, -0.5422196, 0.644485, 0.78723043
1565632576133, 9.730259, 3.5973196, -9.012459, -0.7161109, 1.1138428, -0.4857606, 0.588026, 0.8117315
1565632576134, 9.97643, 3.781736, -9.2184305, -0.4981641, 1.0872055, -0.4133226, 0.5251754, 0.85753787
1565632576143, 10.074585, 4.0523734, -9.208851, -0.5221143, 1.0480475, -0.32810146, 0.4612595, 0.88203895
1565632576144, 10.299844, 4.3349857, -9.321417, -0.63707525, 1.0232674, -0.25885928, 0.41438788, 0.8990832
1565632576154, 10.603125, 4.5864625, -9.522598, -0.8430469, 1.0063964, -0.16937704, 0.36751625, 0.9214538
1565632576155, 11.039733, 4.912185, -9.807606, -1.2478052, 0.9930419, -0.11717909, 0.32490566, 0.9310411
1565632576166, 11.140279, 4.761299, -9.927357, -1.698069, 1.0249959, -0.0628506, 0.3206446, 0.9715212
1565632576167, 11.294276, 4.8259645, -10.044712, -1.8369801, 1.0436336, -0.049002163, 0.2972088, 0.99921805
1565632576175, 12.00207, 5.2355127, -10.518927, -2.44771, 1.0734854, -0.056459017, 0.2695119, 1.0375676
1565632576176, 12.531419, 5.48699, -10.835069, -3.0871804, 1.1000324, -0.10013486, 0.28868666, 1.0567423
1565632576184, 13.012992, 5.6187162, -11.167976, -3.6116896, 1.157037, -0.15446335, 0.33662358, 1.0961571
1565632576185, 13.10717, 5.8007374, -11.074571, -3.9374123, 1.2058257, -0.20772657, 0.40266997, 1.1174624
1565632576194, 13.100651, 5.7815776, -11.05541, -3.9972878, 1.2838842, -0.27803403, 0.47723848, 1.1590078
1565632576195, 13.05848, 5.8055277, -11.00751, -3.9565725, 1.3619739, -0.34514567, 0.53795856, 1.2026836
1565632576206, 13.030652, 5.839058, -11.00751, -3.8128712, 1.445562, -0.39627838, 0.6114618, 1.24849
1565632576206, 13.029159, 5.7911572, -11.045831, -3.7697608, 1.5202686, -0.47191215, 0.67005134, 1.2804478
1565632576214, 12.993153, 5.9372535, -11.031461, -3.4464333, 1.5799736, -0.5113269, 0.71585774, 1.3124058
1565632576215, 12.946084, 5.848638, -11.091336, -3.2213013, 1.6367004, -0.5390238, 0.7488809, 1.3518206
1565632576224, 12.71744, 5.7839723, -10.997931, -2.7063723, 1.6816528, -0.56885123, 0.75420725, 1.3912354
1565632576225, 12.512642, 5.752837, -10.8925495, -2.196233, 1.7014768, -0.53795856, 0.7414241, 1.433846
1565632576235, 12.339243, 5.7624173, -10.789563, -1.6238233, 1.7105513, -0.51026165, 0.7190535, 1.4658039
1565632576238, 12.241443, 5.6761966, -10.789563, -1.104104, 1.6964302, -0.44101948, 0.66579026, 1.4966966
1565632576244, 12.154874, 5.750442, -10.6817875, -0.7568262, 1.6769805, -0.35899413, 0.6103965, 1.5201324
1565632576248, 12.071844, 5.829478, -10.5620365, -0.43589357, 1.6590345, -0.28229508, 0.52624065, 1.5478293
1565632576255, 12.113278, 6.09772, -10.4638405, -0.23950197, 1.6334871, -0.18748654, 0.4293016, 1.5648735
1565632576256, 12.019415, 6.224656, -10.281819, -0.06466553, 1.5876361, -0.07456851, 0.3153183, 1.5542208
1565632576266, 12.105459, 6.622229, -10.133328, 0.06227051, 1.5372127, 0.020240024, 0.19707392, 1.5243934
1565632576266, 12.098225, 6.8808913, -9.948912, -0.19878663, 1.5122217, 0.12037488, 0.058589544, 1.506284
1565632576276, 11.968129, 7.0006423, -9.707015, -0.031135255, 1.4897228, 0.22796659, -0.07882957, 1.470065
1565632576276, 11.813136, 7.230564, -9.340576, -0.15088624, 1.4923906, 0.33981937, -0.20133498, 1.4391723
1565632576286, 11.742476, 7.4892263, -9.041199, -0.23231691, 1.4963706, 0.4346279, -0.3206446, 1.3954965
1565632576286, 11.722086, 7.5946074, -8.914263, -0.51492923, 1.5070571, 0.5305017, -0.42717105, 1.3443637
1565632576296, 11.604244, 7.807764, -8.5502205, -0.76880133, 1.5244176, 0.5954828, -0.5187838, 1.3038837
1565632576296, 10.977914, 7.3000197, -8.126302, -1.089734, 1.540544, 0.6764429, -0.5816344, 1.2559468
1565632576306, 10.956437, 7.6041875, -7.795789, -1.2022998, 1.5473926, 0.7499462, -0.61678815, 1.2048141
1565632576307, 11.340487, 8.083191, -7.7718387, -1.6932789, 1.5320451, 0.7850999, -0.6380934, 1.1504856
1565632576316, 11.633413, 8.337064, -7.817344, -2.1722827, 1.5022984, 0.79681784, -0.6625945, 1.087635
1565632576317, 11.756551, 8.557405, -7.6449027, -2.5578809, 1.4490341, 0.7978831, -0.6689861, 1.0077401
1565632576326, 11.921724, 8.741821, -7.544312, -2.9650342, 1.3837215, 0.78296936, -0.6593987, 0.9310411
1565632576327, 11.827071, 8.56459, -7.446116, -3.3290772, 1.3107641, 0.74781567, -0.6306366, 0.8724516
1565632576336, 11.669354, 8.368198, -7.3072047, -3.5709743, 1.2317009, 0.71479243, -0.5965481, 0.8064052
1565632576337, 11.698033, 8.344249, -7.2904396, -3.7506008, 1.1423038, 0.6689861, -0.5400891, 0.7520767
1565632576346, 11.545718, 8.138277, -7.199429, -3.903882, 1.054749, 0.6061355, -0.49321744, 0.70840085
1565632576347, 11.457639, 8.052056, -7.072493, -4.0523734, 0.9615798, 0.5390238, -0.4495416, 0.65726817
1565632576357, 11.512027, 7.951465, -7.189849, -4.1960745, 0.87680066, 0.47404268, -0.39627838, 0.6221144
1565632576358, 11.590181, 7.9083548, -7.2425394, -4.397256, 0.7826359, 0.39414784, -0.34834146, 0.5795039
1565632576367, 11.5378065, 7.8197393, -7.2449346, -4.414021, 0.6986153, 0.3089267, -0.30466563, 0.5475459
1565632576368, 11.44767, 7.6305327, -7.340735, -4.351751, 0.6103444, 0.23542345, -0.24927188, 0.5049353
1565632576377, 11.600487, 7.699988, -7.5131764, -4.3397756, 0.5373264, 0.16085494, -0.20772657, 0.46871635
1565632576378, 11.633407, 7.6592727, -7.6496925, -4.26074, 0.47848046, 0.066046394, -0.18642128, 0.43569317
1565632576388, 11.517283, 7.5467067, -7.7239385, -4.0044727, 0.44205266, 0.010652645, -0.16192019, 0.4111921
1565632576389, 11.529423, 7.5203614, -7.879615, -3.779341, 0.39645588, -0.053263225, -0.1470065, 0.36432046
1565632576398, 11.5452385, 7.5970025, -7.9802055, -3.4488282, 0.38388708, -0.084155895, -0.15978967, 0.3387541
1565632576399, 11.409299, 7.4125857, -8.1143265, -3.06323, 0.37592816, -0.10013486, -0.17470337, 0.3174488
1565632576408, 11.284649, 7.31439, -8.222102, -2.4980054, 0.3698846, -0.11504856, -0.21092236, 0.28122982
1565632576409, 11.274603, 7.1251836, -8.396939, -2.4165747, 0.3728806, -0.11930962, -0.25033715, 0.24927188
1565632576418, 11.289317, 7.1347637, -8.468789, -2.196233, 0.3735936, -0.10333065, -0.28975195, 0.21198763
1565632576419, 11.478717, 7.2329593, -8.631651, -2.2225783, 0.36467066, -0.10972224, -0.3110572, 0.1555286
1565632576428, 11.400392, 7.168294, -8.641231, -1.9782863, 0.38075268, -0.083090626, -0.35153726, 0.12037488
1565632576429, 11.252597, 7.151529, -8.538245, -1.6046631, 0.4055693, -0.05539375, -0.3930826, 0.083090626
1565632576439, 11.284342, 7.209009, -8.54543, -1.5304176, 0.4179816, -0.02130529, -0.4165184, 0.027696876
1565632576440, 11.164186, 7.165899, -8.454419, -1.346001, 0.4181879, 0.029827405, -0.41545314, -0.037284255
1565632576448, 11.10586, 7.173084, -8.399334, -1.1567944, 0.4273105, 0.08628642, -0.40906155, -0.08841695
1565632576450, 10.957609, 7.0437527, -8.322693, -1.089734, 0.43235305, 0.14807177, -0.38029942, -0.14274544
1565632576457, 10.953739, 7.173084, -8.217313, -1.0035132, 0.45542267, 0.22690132, -0.33449304, -0.20985709
1565632576458, 10.837148, 7.1563187, -8.080796, -0.9651929, 0.48756072, 0.29827404, -0.27057716, -0.27483824
1565632576467, 10.710257, 7.0198026, -8.008945, -1.1352394, 0.53523046, 0.36218992, -0.20133498, -0.3387541
1565632576468, 10.537415, 6.9168167, -7.829319, -1.3771362, 0.5906188, 0.42397526, -0.10972224, -0.39627838
1565632576477, 10.40173, 6.7611403, -7.7502837, -1.5543678, 0.6408095, 0.4612595, -0.023435818, -0.44421527
1565632576482, 10.184717, 6.567144, -7.580237, -1.7723145, 0.7071775, 0.49321744, 0.054328486, -0.50387007
1565632576488, 9.91841, 6.330037, -7.32876, -2.1435425, 0.76081735, 0.515588, 0.12463594, -0.5454154
1565632576489, 9.729512, 5.949229, -7.2976246, -2.4525, 0.79588157, 0.51665324, 0.19813919, -0.572047
1565632576498, 9.452781, 5.5660257, -7.1467385, -2.7015822, 0.82857376, 0.5091964, 0.25992453, -0.5997439
1565632576499, 9.259918, 5.221143, -7.0198026, -3.0344899, 0.84572405, 0.4857606, 0.29933932, -0.624245
1565632576510, 9.130328, 4.974456, -6.928792, -3.2572267, 0.834472, 0.44101948, 0.31851408, -0.6327671
1565632576511, 8.937362, 4.502637, -6.8497562, -3.5613942, 0.82303864, 0.40053943, 0.3472762, -0.6295713
1565632576518, 8.757627, 4.2080493, -6.7563505, -3.652405, 0.77044624, 0.34621096, 0.34514567, -0.5954828
1565632576519, 8.533196, 3.9326222, -6.600674, -3.7122805, 0.734128, 0.28975195, 0.3323625, -0.58696073
1565632576528, 8.336774, 3.63564, -6.5384035, -3.67875, 0.6761426, 0.23755397, 0.3121225, -0.55074173
1565632576529, 8.209259, 3.5063088, -6.440208, -3.6907253, 0.61159635, 0.17789917, 0.2727077, -0.51771855
1565632576538, 8.079429, 3.4440382, -6.3875175, -3.551814, 0.55629045, 0.1438107, 0.24074976, -0.48043427
1565632576539, 8.050059, 3.527864, -6.310877, -3.539839, 0.5084225, 0.094808534, 0.19920446, -0.45806372
1565632576549, 8.01814, 3.7386258, -6.239026, -3.3745828, 0.46623668, 0.046871636, 0.1438107, -0.44101948
1565632576549, 7.9335394, 3.8248463, -6.183941, -3.173401, 0.44237214, 0.02130529, 0.08522116, -0.43356264
1565632576559, 8.130232, 4.2200246, -6.2270513, -3.0847852, 0.4353857, -0.010652645, 0.03834952, -0.43356264
1565632576560, 8.18573, 4.404441, -6.2438164, -2.936294, 0.45743155, -0.0479369, 0.0063915867, -0.45486793
1565632576569, 8.258953, 4.6774735, -6.2701616, -2.6488917, 0.49229857, -0.054328486, -0.018109497, -0.4889564
1565632576570, 8.295433, 4.7229786, -6.358777, -2.4644752, 0.5374531, -0.058589544, -0.041545313, -0.53263223
1565632576579, 8.3185425, 4.727769, -6.4833183, -2.193838, 0.5582291, -0.023435818, -0.07350325, -0.55287224
1565632576580, 8.148066, 4.5074267, -6.495293, -1.9711012, 0.5723564, 0.002130529, -0.10013486, -0.5635249
1565632576594, 8.087815, 4.3445654, -6.586304, -1.7771046, 0.5851755, 0.037284255, -0.13209279, -0.56885123
1565632576595, 8.02689, 4.133804, -6.6509695, -1.7627344, 0.5859642, 0.07563378, -0.14168017, -0.5635249
1565632576600, 7.9617333, 3.9014869, -6.662945, -1.9423609, 0.5864656, 0.10546118, -0.16831179, -0.551807
1565632576601, 7.9730473, 3.652405, -6.809041, -1.9663111, 0.5706189, 0.128897, -0.18216023, -0.5251754
1565632576609, 7.9140973, 3.5757644, -6.69408, -2.2441335, 0.5437452, 0.13848437, -0.19068234, -0.49002165
1565632576610, 7.953544, 3.3721876, -6.8018556, -2.3710694, 0.5182136, 0.13848437, -0.19387813, -0.46019423
1565632576620, 7.798952, 3.1853762, -6.6821046, -2.454895, 0.48643526, 0.14594123, -0.20453078, -0.4165184
1565632576620, 7.659087, 2.912344, -6.6509695, -2.43813, 0.44059473, 0.13954964, -0.22264028, -0.3536678
1565632576630, 7.5372186, 2.787803, -6.5216384, -2.550696, 0.41260263, 0.13848437, -0.23861924, -0.30679616
1565632576631, 7.519563, 2.7327175, -6.466553, -2.694397, 0.36981404, 0.11824436, -0.2545982, -0.24074976
1565632576640, 7.7172503, 2.8213332, -6.6270194, -2.7710378, 0.36450884, 0.098004326, -0.2876214, -0.20133498
1565632576641, 7.838211, 2.907554, -6.6916847, -2.8644435, 0.34687406, 0.070307456, -0.30360037, -0.15233281
1565632576652, 8.021239, 3.2308815, -6.71324, -2.9722195, 0.36296296, 0.036218993, -0.34408042, -0.10972224
1565632576653, 8.371997, 3.4847536, -6.9719024, -3.056045, 0.38638127, -0.0010652645, -0.37710363, -0.084155895
1565632576662, 8.63994, 3.671565, -7.168294, -3.1278956, 0.41868553, -0.049002163, -0.4111921, -0.06178534
1565632576665, 8.817297, 3.796106, -7.34313, -3.06802, 0.46351737, -0.07243799, -0.45593318, -0.041545313
1565632576669, 9.130275, 4.0906935, -7.556287, -3.0871804, 0.50055754, -0.10013486, -0.49002165, -0.020240024
1565632576672, 9.349762, 4.2751102, -7.7694435, -2.9626393, 0.5346142, -0.11504856, -0.5219796, 0.010652645
1565632576681, 9.213692, 3.8751419, -7.8556643, -2.8572583, 0.5654708, -0.1107875, -0.55287224, 0.04261058
1565632576683, 9.682096, 4.4499464, -8.231683, -2.4860303, 0.6000626, -0.10226539, -0.58696073, 0.07137272
1565632576690, 10.228452, 4.9457154, -8.600515, -2.4884255, 0.6442922, -0.08735169, -0.6295713, 0.10546118
1565632576691, 10.6535015, 5.230723, -8.947793, -2.4644752, 0.65625566, -0.07456851, -0.64341974, 0.10546118
1565632576701, 10.866949, 5.4582496, -9.093889, -2.3662794, 0.6613748, -0.05752428, -0.6487461, 0.11504856
1565632576702, 11.07551, 5.611531, -9.24717, -2.3806496, 0.6580869, -0.035153728, -0.6466155, 0.11717909
1565632576711, 11.198383, 5.927674, -9.223221, -2.2800586, 0.6665432, 0.002130529, -0.65726817, 0.1107875
1565632576712, 11.271627, 6.1480155, -9.206455, -2.1195924, 0.66972953, 0.0479369, -0.660464, 0.10013486
1565632576723, 11.238117, 6.303692, -9.09868, -1.9423609, 0.68104064, 0.0958738, -0.6689861, 0.084155895
1565632576725, 11.414746, 6.6485744, -9.077125, -1.9232007, 0.6724865, 0.15233281, -0.6530071, 0.051132694
1565632576731, 11.496719, 6.847361, -9.005274, -2.047742, 0.66345793, 0.20240025, -0.6317018, 0.0127831735
1565632576732, 11.787586, 7.046148, -9.19448, -2.1818628, 0.6451977, 0.22050974, -0.6061355, -0.015978966
1565632576741, 11.358072, 6.7707205, -8.832832, -2.2680836, 0.63675463, 0.26631612, -0.5763081, -0.049002163
1565632576742, 11.546336, 6.9790874, -8.909473, -2.2872438, 0.6383415, 0.2876214, -0.56245965, -0.09161274
1565632576754, 11.946625, 7.2281694, -9.15137, -2.5938063, 0.64162886, 0.30253512, -0.5496765, -0.13422333
1565632576755, 12.149717, 7.3934255, -9.259146, -2.687212, 0.6316201, 0.29933932, -0.52624065, -0.18002969
1565632576764, 12.502766, 7.4269557, -9.577683, -3.0704153, 0.6281584, 0.28655612, -0.50600064, -0.23755397
1565632576765, 12.544295, 7.3000197, -9.649534, -3.3099172, 0.62291104, 0.28549087, -0.46978164, -0.29294774
1565632576774, 12.5947695, 7.084468, -9.831555, -3.432063, 0.6269206, 0.26525086, -0.4644553, -0.3270362
1565632576775, 12.689047, 7.065308, -9.920172, -3.5613942, 0.6279397, 0.24074976, -0.45380265, -0.36112466
1565632576784, 12.77892, 6.957532, -10.068663, -3.6763551, 0.63686156, 0.2130529, -0.45167214, -0.39521313
1565632576785, 12.935759, 6.7946706, -10.34888, -3.7506008, 0.63323766, 0.1768339, -0.43995422, -0.41971418
1565632576792, 12.970818, 6.5288234, -10.499766, -3.9206471, 0.62222475, 0.13848437, -0.4165184, -0.44101948
1565632576793, 12.994444, 6.337222, -10.626702, -3.9709425, 0.5947697, 0.10439592, -0.4016047, -0.4261058
1565632576802, 13.068063, 6.1695704, -10.765614, -4.1002736, 0.58983916, 0.07350325, -0.3834952, -0.44208476
1565632576803, 13.184397, 5.9468336, -10.97877, -4.2343946, 0.5453717, 0.022370555, -0.35260254, -0.41545314
1565632576812, 13.274675, 5.8007374, -11.144027, -4.287085, 0.5134729, -0.020240024, -0.3206446, -0.40053943
1565632576813, 13.357037, 5.6761966, -11.304493, -4.28948, 0.4645762, -0.07350325, -0.27164245, -0.36964676
1565632576824, 13.608327, 5.6929617, -11.541599, -4.423601, 0.4212215, -0.1438107, -0.221575, -0.32810146
1565632576826, 13.401349, 5.4462748, -11.469749, -4.287085, 0.3906559, -0.1768339, -0.1917476, -0.2908172
1565632576832, 13.765544, 5.6761966, -11.783497, -4.2918754, 0.37835038, -0.24394555, -0.15020229, -0.24714136
1565632576834, 13.937687, 5.767207, -12.0110235, -4.0906935, 0.38349077, -0.29507825, -0.10439592, -0.221575
1565632576842, 13.984426, 5.858218, -12.066109, -3.9565725, 0.4016174, -0.34834146, -0.056459017, -0.1917476
1565632576843, 13.929044, 5.9061184, -12.099639, -3.5685792, 0.42299584, -0.38775626, -0.03089267, -0.16618125
1565632576851, 13.757078, 6.0378447, -11.915223, -3.290757, 0.41347224, -0.3888215, -0.002130529, -0.14061491
1565632576853, 13.568135, 6.1408305, -11.761941, -2.8357031, 0.41803724, -0.3930826, 0.027696876, -0.13954964
1565632576861, 13.313496, 6.2438164, -11.508069, -2.4141798, 0.40167955, -0.37603834, 0.040480047, -0.13528858
1565632576862, 13.130886, 6.4186525, -11.290123, -1.9375709, 0.38447192, -0.35153726, 0.05965481, -0.1438107
1565632576872, 12.97114, 6.598279, -11.05541, -1.5783179, 0.36316925, -0.3110572, 0.07563378, -0.17150758
1565632576873, 12.74166, 6.696475, -10.763218, -1.2885206, 0.33761656, -0.2545982, 0.09054748, -0.20240025
1565632576882, 12.375273, 6.600674, -10.427916, -0.9148975, 0.32742804, -0.18855181, 0.094808534, -0.25033715
1565632576883, 12.000758, 6.6988697, -9.944121, -0.50774413, 0.3348067, -0.112918034, 0.08841695, -0.30253512
1565632576892, 11.525351, 6.5479836, -9.479487, -0.31135255, 0.35913157, -0.036218993, 0.06391586, -0.35153726
1565632576893, 11.134088, 6.567144, -8.990904, -0.06466553, 0.413689, 0.054328486, 0.041545313, -0.4079963
1565632576903, 10.905292, 6.5407987, -8.725057, 0.12933107, 0.49517497, 0.14594123, 0.013848438, -0.47297743
1565632576903, 10.772546, 6.6485744, -8.475974, 0.045505375, 0.5862033, 0.22690132, -0.02130529, -0.5400891
1565632576912, 10.600002, 6.638994, -8.262817, -0.098195806, 0.6868453, 0.30146983, -0.05539375, -0.6146576
1565632576913, 10.400329, 6.5096636, -8.109536, -0.16286133, 0.78033435, 0.3717773, -0.101200126, -0.6785734
1565632576923, 10.262833, 6.382727, -8.028106, -0.36883304, 0.881929, 0.43675843, -0.16192019, -0.7488809
1565632576923, 10.115474, 6.229446, -7.9466753, -0.60594, 0.97702056, 0.47191215, -0.21624869, -0.8277105
1565632576933, 10.119109, 6.12646, -7.9921803, -0.99393314, 1.0590599, 0.50600064, -0.26205507, -0.8926916
1565632576934, 10.0754385, 6.0522146, -7.975415, -1.1304493, 1.1364399, 0.5294364, -0.32597092, -0.95128113
1565632576943, 10.208263, 5.982759, -8.138277, -1.477727, 1.1963204, 0.5187838, -0.37710363, -1.0098706
1565632576944, 10.271244, 5.9133034, -8.231683, -1.6645386, 1.2489448, 0.51665324, -0.43036684, -1.0524813
1565632576953, 10.3428335, 5.836663, -8.337064, -1.8441651, 1.2950063, 0.5134575, -0.49428272, -1.0812434
1565632576955, 10.45621, 5.8893533, -8.404124, -2.0046315, 1.3404418, 0.5006743, -0.5496765, -1.1153319
1565632576963, 10.677826, 6.0210795, -8.557405, -2.1291726, 1.3946773, 0.4910869, -0.5901565, -1.164334
1565632576964, 10.877594, 6.2510014, -8.624466, -2.2058132, 1.4144037, 0.47830373, -0.5901565, -1.1930962
1565632576973, 10.627191, 6.128855, -8.447234, -2.0046315, 1.4626178, 0.48149952, -0.6146576, -1.2367721
1565632576975, 10.984225, 6.6437845, -8.454419, -2.2441335, 1.5019417, 0.47297743, -0.6199839, -1.2836437
1565632576984, 11.498932, 7.209009, -8.636441, -2.3806496, 1.5596788, 0.44208476, -0.6423545, -1.3507553
1565632576985, 11.808869, 7.5946074, -8.725057, -2.3758595, 1.6195205, 0.41545314, -0.6423545, -1.4274544
1565632576993, 11.741804, 7.606582, -8.586145, -2.5075855, 1.6797535, 0.3717773, -0.6412892, -1.5073493
1565632576994, 11.457299, 7.4054008, -8.396939, -2.4333398, 1.6943884, 0.34301516, -0.6061355, -1.5446335
1565632577004, 11.079489, 7.1443434, -8.104747, -2.454895, 1.7026409, 0.30466563, -0.572047, -1.5744609
1565632577005, 10.928413, 7.067703, -7.951465, -2.5004005, 1.6999077, 0.25033715, -0.51665324, -1.6000272
1565632577014, 10.698682, 6.835386, -7.814949, -2.5818312, 1.6812036, 0.19600865, -0.46658584, -1.603223
1565632577015, 10.457541, 6.70845, -7.5706573, -2.6536818, 1.6697206, 0.12676647, -0.4048005, -1.6149409
1565632577024, 10.20313, 6.5407987, -7.3622904, -2.668052, 1.6540792, 0.05006743, -0.35899413, -1.6138756
1565632577025, 10.038454, 6.4186525, -7.2353544, -2.687212, 1.6273369, -0.02876214, -0.30679616, -1.5978967
1565632577033, 9.812313, 6.229446, -7.1132083, -2.6225464, 1.5936393, -0.094808534, -0.24181503, -1.5723304
1565632577040, 9.585835, 6.006709, -7.0030375, -2.6009912, 1.5664134, -0.17576863, -0.18322548, -1.5456988
1565632577044, 9.405499, 5.865403, -6.940767, -2.4261549, 1.5351079, -0.24714136, -0.11717909, -1.510545
1565632577045, 9.313073, 5.757627, -6.935977, -2.339934, 1.5158606, -0.3089267, -0.05965481, -1.4828482
1565632577053, 9.03415, 5.611531, -6.7803006, -2.0381618, 1.4919468, -0.3472762, 0.014913702, -1.4508902
1565632577054, 8.912284, 5.5061502, -6.7635355, -1.8345851, 1.4644469, -0.37071204, 0.07669904, -1.4146712
1565632577064, 8.75956, 5.4319043, -6.67971, -1.6142433, 1.4437257, -0.39627838, 0.14594123, -1.3805827
1565632577065, 8.823489, 5.4223247, -6.8497562, -1.2382251, 1.4283019, -0.39414784, 0.22050974, -1.3550164
1565632577074, 8.539417, 5.1780324, -6.720425, -0.97237796, 1.4047192, -0.37390783, 0.27803403, -1.325189
1565632577075, 8.455553, 5.0894165, -6.71324, -0.72569096, 1.371369, -0.330232, 0.35579833, -1.2825783
1565632577085, 8.342806, 4.912185, -6.720425, -0.5556446, 1.3423355, -0.28016454, 0.41864893, -1.2442288
1565632577085, 8.310548, 4.864285, -6.72761, -0.3784131, 1.3186227, -0.22903186, 0.46552056, -1.212271
1565632577093, 8.208832, 4.7780643, -6.6605496, -0.4382886, 1.3100246, -0.17470337, 0.49428272, -1.200553
1565632577094, 8.159131, 4.7469287, -6.6198344, -0.46463382, 1.2976412, -0.13315806, 0.5028048, -1.1888351
1565632577105, 8.06484, 4.7469287, -6.495293, -0.56522465, 1.2821138, -0.10013486, 0.50813115, -1.1728562
1565632577105, 8.062382, 4.646338, -6.5551686, -0.6658155, 1.2751794, -0.060720075, 0.47617322, -1.1813782
1565632577115, 8.07703, 4.591253, -6.583909, -0.90052736, 1.2507157, -0.04474111, 0.43782368, -1.1707256
1565632577115, 7.8613844, 4.3278003, -6.485713, -1.0035132, 1.229487, -0.03834952, 0.3898868, -1.1653993
1565632577125, 7.8645926, 4.1984696, -6.5288234, -1.2645704, 1.2118319, -0.029827405, 0.34194988, -1.1622036
1565632577126, 7.71559, 3.9685476, -6.447393, -1.4873072, 1.1895914, -0.03834952, 0.26525086, -1.1590078
1565632577135, 7.7125835, 3.8487966, -6.452183, -1.7435743, 1.1554329, -0.043675844, 0.20879184, -1.135572
1565632577136, 7.6664195, 3.6907253, -6.449788, -1.8848804, 1.1284308, -0.07350325, 0.1470065, -1.1163971
1565632577145, 7.632668, 3.537444, -6.449788, -2.0357666, 1.104898, -0.111852765, 0.082025364, -1.0961571
1565632577146, 7.582967, 3.2644117, -6.5240335, -2.069297, 1.064639, -0.13635385, 0.020240024, -1.055677
1565632577155, 7.6043763, 2.9937747, -6.588699, -2.335144, 1.0140198, -0.16831179, -0.03834952, -0.99921805
1565632577156, 7.624852, 2.8261232, -6.6653395, -2.3926246, 0.98198724, -0.22050974, -0.068176925, -0.95447695
1565632577165, 7.623038, 2.6464968, -6.696475, -2.5027955, 0.92024916, -0.27803403, -0.101200126, -0.87138635
1565632577166, 7.545787, 2.3806496, -6.6988697, -2.5291407, 0.873876, -0.3206446, -0.1107875, -0.80533993
1565632577176, 7.5660143, 2.3710694, -6.71324, -2.560276, 0.82596684, -0.38562572, -0.09374327, -0.72437984
1565632577177, 7.653753, 2.1076174, -6.830596, -2.7351124, 0.7704845, -0.44208476, -0.056459017, -0.628506
1565632577185, 7.704665, 2.0980372, -6.8952613, -2.7231374, 0.7241362, -0.49854377, 0.004261058, -0.5251754
1565632577186, 7.729382, 1.9950514, -7.038963, -2.4932153, 0.70981234, -0.55606806, 0.07563378, -0.4346279
1565632577196, 7.8102283, 2.1627028, -7.1132083, -2.3926246, 0.6973855, -0.5933523, 0.15659387, -0.33129725
1565632577197, 7.9029775, 2.1195924, -7.2832546, -2.2177882, 0.7115927, -0.6146576, 0.2545982, -0.25246766
1565632577206, 7.8191905, 2.1603076, -7.2569094, -1.951941, 0.74170333, -0.6423545, 0.33662358, -0.1555286
1565632577211, 7.78384, 2.201023, -7.2545147, -1.7651294, 0.777956, -0.65726817, 0.40906155, -0.07669904
1565632577215, 7.907, 2.4333398, -7.3718705, -1.5016773, 0.7985264, -0.6562029, 0.45486793, -0.011717909
1565632577216, 7.9549484, 2.5411158, -7.431746, -1.2621753, 0.83378977, -0.6593987, 0.50600064, 0.066046394
1565632577225, 8.006356, 2.7063723, -7.4772515, -0.9316626, 0.84267604, -0.6498113, 0.5251754, 0.10972224
1565632577226, 8.101332, 2.8524685, -7.537127, -0.8286768, 0.84313846, -0.6221144, 0.5486112, 0.15126756
1565632577236, 8.206645, 2.924319, -7.6377177, -0.68018556, 0.8232861, -0.5901565, 0.5432849, 0.18535602
1565632577237, 8.347082, 3.0033545, -7.776629, -0.42152345, 0.7785254, -0.53795856, 0.51452273, 0.22796659
1565632577246, 8.337933, 2.8931837, -7.814949, -0.2778223, 0.74118143, -0.49321744, 0.4889564, 0.25885928
1565632577247, 8.487641, 2.9171338, -7.965835, -0.27542725, 0.68889016, -0.44101948, 0.43569317, 0.30040458
1565632577256, 8.466625, 2.9051588, -7.951465, -0.1341211, 0.6189223, -0.37284255, 0.38029942, 0.3153183
1565632577257, 8.640296, 2.929109, -8.123906, -0.2778223, 0.5719795, -0.31957933, 0.31851408, 0.35153726
1565632577266, 8.711671, 2.931504, -8.195757, -0.35925296, 0.52523154, -0.26738137, 0.25566345, 0.37284255
1565632577267, 8.876556, 3.051255, -8.3179035, -0.54366946, 0.50179386, -0.221575, 0.20559604, 0.40053943
1565632577276, 8.970598, 3.06802, -8.389753, -0.81909674, 0.4928158, -0.18109496, 0.15765914, 0.43036684
1565632577277, 9.079768, 3.0943654, -8.473579, -1.0322535, 0.48529083, -0.1587244, 0.10972224, 0.44528055
1565632577287, 9.167509, 3.163821, -8.5119, -1.2573853, 0.5244629, -0.14594123, 0.09161274, 0.49534798
1565632577288, 9.186708, 3.151846, -8.49274, -1.5280225, 0.5454539, -0.13741912, 0.09161274, 0.51984906
1565632577298, 9.2009, 3.1422658, -8.48316, -1.6789087, 0.5831066, -0.13954964, 0.111852765, 0.5550028
1565632577299, 9.299332, 2.9698243, -8.58854, -1.9734962, 0.64204085, -0.1470065, 0.15233281, 0.6061355
1565632577307, 9.385554, 3.1326857, -8.547825, -2.2824538, 0.71416026, -0.16831179, 0.19600865, 0.66579026
1565632577308, 9.403105, 3.1231055, -8.547825, -2.3662794, 0.7813829, -0.20133498, 0.24927188, 0.7126619
1565632577317, 9.393123, 3.03928, -8.53585, -2.4764502, 0.85705143, -0.22690132, 0.30786142, 0.7669904
1565632577318, 9.383634, 2.9219239, -8.5502205, -2.5315359, 0.9491985, -0.25992453, 0.37816888, 0.8309063
1565632577327, 9.361612, 2.926714, -8.5502205, -2.44292, 1.0409225, -0.28549087, 0.43569317, 0.9012137
1565632577328, 9.348949, 2.931504, -8.56938, -2.318379, 1.1174496, -0.30253512, 0.48363006, 0.96086854
1565632577337, 9.247221, 2.7614577, -8.562195, -2.1387525, 1.1913935, -0.31638354, 0.5187838, 1.0247844
1565632577338, 9.215514, 2.802173, -8.566985, -1.9184108, 1.2643994, -0.3174488, 0.5400891, 1.0982877
1565632577348, 9.420827, 2.8836036, -8.765772, -1.8968556, 1.3251089, -0.30466563, 0.5454154, 1.1685951
1565632577349, 9.750131, 3.0656252, -9.086704, -1.7603394, 1.3836966, -0.27377295, 0.5496765, 1.2399678
1565632577357, 9.984107, 3.1302907, -9.309442, -1.7938697, 1.425071, -0.25672874, 0.5305017, 1.2974921
1565632577358, 10.392839, 3.2260914, -9.699829, -1.8753004, 1.484764, -0.24820662, 0.51026165, 1.3720607
1565632577367, 10.774782, 3.527864, -9.975257, -2.0357666, 1.5404346, -0.21731395, 0.49215218, 1.4434333
1565632577372, 11.036918, 3.65959, -10.197993, -2.1028273, 1.582618, -0.2034655, 0.45167214, 1.5030881
1565632577378, 11.380894, 3.7985013, -10.466236, -2.3566992, 1.635829, -0.19920446, 0.43675843, 1.5638082
1565632577379, 11.7677965, 4.030818, -10.772799, -2.4860303, 1.6898563, -0.20133498, 0.406931, 1.627724
1565632577387, 12.125206, 4.28948, -10.99314, -2.787803, 1.7355018, -0.221575, 0.38456047, 1.6777915
1565632577388, 12.509226, 4.478687, -11.285333, -3.0105398, 1.7980733, -0.24714136, 0.34621096, 1.7470337
1565632577398, 12.93422, 4.6199927, -11.601475, -3.3697927, 1.8506986, -0.28442562, 0.3270362, 1.7992316
1565632577399, 13.164607, 4.655918, -11.845767, -3.3626075, 1.9308546, -0.31957933, 0.3270362, 1.8759307
1565632577408, 13.07258, 4.4403663, -11.821816, -3.3793726, 2.0287051, -0.35899413, 0.314253, 1.9718045
1565632577409, 13.671125, 4.9313455, -12.231365, -3.6021094, 2.1151004, -0.41971418, 0.3110572, 2.049569
1565632577418, 14.168584, 5.158872, -12.609778, -3.8895118, 2.2014031, -0.4889564, 0.32277513, 2.122007
1565632577419, 14.426264, 5.343289, -12.789405, -3.999683, 2.298558, -0.5763081, 0.34194988, 2.198706
1565632577428, 14.317669, 5.372029, -12.727135, -3.7625759, 2.3855598, -0.6540724, 0.35260254, 2.2668827
1565632577429, 14.157449, 5.4822, -12.619358, -3.3362625, 2.47088, -0.6945524, 0.38136467, 2.340386
1565632577438, 13.9846525, 5.5875807, -12.499607, -2.8476784, 2.551668, -0.70200926, 0.40053943, 2.420281
1565632577439, 14.102376, 5.870193, -12.597803, -2.3902297, 2.6232207, -0.6860303, 0.43782368, 2.4937842
1565632577448, 14.173391, 6.09772, -12.638518, -1.9926564, 2.6720376, -0.6625945, 0.45593318, 2.5481126
1565632577450, 14.279388, 6.365962, -12.672049, -1.6717237, 2.715069, -0.60507023, 0.4708469, 2.6045716
1565632577458, 14.379473, 6.631809, -12.698394, -1.2406201, 2.7366333, -0.53795856, 0.46339005, 2.6429212
1565632577459, 14.46966, 6.926397, -12.672049, -0.9029224, 2.7561333, -0.44847634, 0.44101948, 2.683401
1565632577469, 14.442875, 7.2329593, -12.490027, -0.5292993, 2.760634, -0.36005938, 0.37603834, 2.711098
1565632577470, 14.45041, 7.561077, -12.312796, -0.19878663, 2.7413194, -0.24181503, 0.29827404, 2.7142937
1565632577479, 14.509757, 7.9826, -12.116405, 0.06227051, 2.6968274, -0.10652645, 0.1949434, 2.6876621
1565632577480, 14.507376, 8.468789, -11.776312, 0.24908204, 2.6502697, 0.040480047, 0.058589544, 2.6493127
1565632577489, 14.456433, 8.988508, -11.318863, 0.2802173, 2.5939999, 0.19707392, -0.07563378, 2.5853968
1565632577490, 14.324992, 9.309442, -10.885365, 0.2203418, 2.53118, 0.32810146, -0.2428803, 2.4980452
1565632577499, 14.261005, 9.81958, -10.341695, 0.038320314, 2.4639835, 0.46658584, -0.3930826, 2.3872576
1565632577500, 14.270011, 10.102193, -10.075848, -0.23710695, 2.423522, 0.5763081, -0.5571333, 2.2871227
1565632577510, 14.197837, 10.475816, -9.5561285, -0.7185059, 2.3687146, 0.680704, -0.7126619, 2.1539648
1565632577511, 14.056856, 10.686578, -9.067544, -1.0825489, 2.3043907, 0.7669904, -0.84581995, 2.001632
1565632577519, 13.984146, 10.887759, -8.641231, -1.5304176, 2.2475638, 0.8223842, -0.9672601, 1.8546255
1565632577520, 13.817733, 10.938055, -8.205338, -1.9902613, 2.1994224, 0.8841695, -1.0844392, 1.6969663
1565632577529, 13.876, 11.079361, -8.004155, -2.3926246, 2.126927, 0.9086706, -1.144094, 1.5456988
1565632577530, 13.66331, 11.043435, -7.544312, -2.794988, 2.0570624, 0.9139969, -1.1899004, 1.4072144
1565632577539, 13.549923, 10.97398, -7.216194, -3.3314724, 1.9451967, 0.89375687, -1.1920309, 1.2506205
1565632577540, 13.512661, 10.880574, -7.0174074, -3.8679566, 1.8178738, 0.85540736, -1.1579424, 1.1100056
1565632577549, 13.439875, 10.796748, -6.8186207, -4.191284, 1.680227, 0.79894835, -1.1121361, 0.9736517
1565632577551, 13.385435, 10.638678, -6.696475, -4.598438, 1.529716, 0.7233146, -1.0503508, 0.8447547
1565632577559, 13.308345, 10.427916, -6.672525, -4.8834453, 1.367254, 0.6562029, -0.9576728, 0.7222493
1565632577560, 13.17542, 10.229129, -6.6437845, -4.981641, 1.1935765, 0.5795039, -0.8447547, 0.6125271
1565632577570, 12.992577, 9.987232, -6.5360084, -5.132527, 1.0169734, 0.50387007, -0.7126619, 0.5219796
1565632577571, 12.459799, 9.484278, -6.2510014, -5.120552, 0.8558457, 0.42077947, -0.59761333, 0.44528055
1565632577580, 12.641451, 9.505833, -6.473738, -5.247488, 0.6874547, 0.33449304, -0.4708469, 0.37284255
1565632577581, 12.576612, 9.326206, -6.576724, -5.2858086, 0.5067816, 0.2428803, -0.3270362, 0.30146983
1565632577591, 12.444205, 9.043594, -6.631809, -5.3935843, 0.33675504, 0.14807177, -0.18855181, 0.23648871
1565632577593, 12.330974, 8.851993, -6.69408, -5.374424, 0.21011919, 0.0479369, -0.058589544, 0.19600865
1565632577600, 12.16977, 8.689131, -6.6773148, -5.2929935, 0.17509915, -0.04580637, 0.08522116, 0.14594123
1565632577601, 11.989573, 8.49274, -6.7779055, -5.0678616, 0.26878673, -0.13315806, 0.2066613, 0.10865697
1565632577610, 11.871716, 8.3179035, -6.878496, -4.9433208, 0.40617457, -0.21944448, 0.3355583, 0.06498113
1565632577611, 11.650885, 8.183782, -6.878496, -4.631968, 0.5506057, -0.30040458, 0.4612595, 0.0127831735
1565632577620, 11.517639, 8.150251, -6.9144216, -4.2918754, 0.6838467, -0.3685815, 0.5752428, -0.029827405
1565632577622, 11.28472, 7.8772197, -7.0102224, -4.018843, 0.7921407, -0.4250405, 0.66365975, -0.07989483
1565632577631, 11.070614, 7.7598634, -6.983877, -3.68354, 0.8956974, -0.4676511, 0.75420725, -0.12144015
1565632577632, 10.874409, 7.580237, -7.062913, -3.302732, 0.97360337, -0.49641323, 0.8213189, -0.16405073
1565632577640, 10.603644, 7.3646855, -7.067703, -2.8716285, 1.0566913, -0.51771855, 0.8969527, -0.20985709
1565632577642, 10.29848, 7.1491337, -6.991062, -2.4644752, 1.1034417, -0.51984906, 0.9416938, -0.24607609
1565632577650, 9.994284, 6.8880763, -6.928792, -2.1052222, 1.1278791, -0.51771855, 0.96299905, -0.27696875
1565632577651, 9.709343, 6.605464, -6.8856816, -1.7962648, 1.1319456, -0.49747851, 0.9736517, -0.29294774
1565632577664, 9.434873, 6.3132715, -6.8665214, -1.4178516, 1.1421319, -0.46552056, 0.98750013, -0.3355583
1565632577665, 9.35361, 6.2677665, -6.821016, -1.2957057, 1.1463444, -0.44208476, 0.98856544, -0.37603834
1565632577671, 9.21346, 6.08814, -6.806646, -1.22146, 1.1344612, -0.4079963, 0.97897804, -0.40266997
1565632577673, 9.112769, 5.944439, -6.813831, -1.1304493, 1.1248734, -0.37284255, 0.9715212, -0.42717105
1565632577682, 8.90778, 5.7552323, -6.7611403, -0.7161109, 1.0896198, -0.3323625, 0.93423694, -0.45167214
1565632577683, 8.678253, 5.5324955, -6.662945, -0.5556446, 1.0808676, -0.2790993, 0.92038846, -0.49321744
1565632577695, 8.502306, 5.3384986, -6.591094, -0.5891748, 1.0563658, -0.23116238, 0.89801794, -0.50600064
1565632577696, 8.280544, 5.0654664, -6.5336137, -0.46942386, 1.0213248, -0.1768339, 0.86179894, -0.5187838
1565632577701, 8.1917715, 4.8115945, -6.600674, -0.62031007, 0.9960883, -0.14061491, 0.83729786, -0.5209143
1565632577704, 8.019683, 4.5601172, -6.5623536, -0.67539555, 0.97158426, -0.0958738, 0.8245147, -0.5049353
1565632577715, 7.886231, 4.28469, -6.567144, -0.84065187, 0.9292648, -0.06391586, 0.7882957, -0.4878911
1565632577717, 7.851086, 4.2200246, -6.5479836, -0.977168, 0.90101856, -0.043675844, 0.7616641, -0.479369
1565632577723, 7.7506647, 4.145779, -6.471343, -1.0035132, 0.8696199, -0.018109497, 0.74675035, -0.44528055
1565632577725, 7.716645, 4.0906935, -6.454578, -1.0729688, 0.8292576, 0.017044231, 0.7073356, -0.43249738
1565632577732, 7.6734557, 4.138594, -6.368357, -1.094524, 0.8133104, 0.0479369, 0.6988135, -0.4133226
1565632577734, 7.771961, 4.277505, -6.361172, -1.2813355, 0.7998462, 0.07456851, 0.680704, -0.4133226
1565632577742, 7.851349, 4.3541455, -6.375542, -1.4274317, 0.7929039, 0.09161274, 0.6775082, -0.4016047
1565632577744, 7.9842596, 4.4906616, -6.373147, -1.7220191, 0.8045039, 0.0958738, 0.6892261, -0.40373522
1565632577753, 8.239248, 4.653523, -6.471343, -2.0860622, 0.8149392, 0.09054748, 0.69135666, -0.42184472
1565632577755, 8.336294, 4.8187795, -6.478528, -2.074087, 0.8155377, 0.07350325, 0.68816084, -0.4314321
1565632577765, 8.406684, 4.8379397, -6.468948, -2.327959, 0.8149753, 0.066046394, 0.6828345, -0.43995422
1565632577767, 8.339892, 4.8307548, -6.3803325, -2.3471193, 0.8103414, 0.046871636, 0.6775082, -0.44208476
1565632577774, 8.423468, 4.792434, -6.471343, -2.4716604, 0.7956042, 0.035153728, 0.6668556, -0.43249738
1565632577776, 8.334899, 4.670288, -6.444998, -2.4740553, 0.7903559, 0.004261058, 0.65513766, -0.44208476
1565632577786, 8.440948, 4.5816727, -6.550379, -2.7111623, 0.75715804, -0.026631612, 0.62531024, -0.4261058
1565632577788, 8.572782, 4.526587, -6.662945, -2.9338992, 0.7185831, -0.060720075, 0.5816344, -0.41758367
1565632577793, 8.677544, 4.524192, -6.816226, -2.8931837, 0.69046724, -0.111852765, 0.54648066, -0.406931
1565632577795, 8.672697, 4.4355764, -6.8425713, -2.9530592, 0.64218223, -0.15126756, 0.49321744, -0.38242993
1565632577804, 8.655503, 4.373306, -6.9072366, -2.8428884, 0.5926797, -0.19281286, 0.43036684, -0.35899413
1565632577806, 8.55918, 4.380491, -6.8761015, -2.6057813, 0.53027064, -0.2066613, 0.35579833, -0.33449304
1565632577813, 8.6108465, 4.4643164, -6.991062, -2.311194, 0.4715453, -0.21944448, 0.28975195, -0.30040458
1565632577815, 8.538913, 4.5074267, -6.940767, -2.1028273, 0.42007226, -0.21731395, 0.20985709, -0.29188246
1565632577826, 8.68418, 4.703819, -7.0581226, -1.8633252, 0.36212724, -0.20240025, 0.1257012, -0.2727077
1565632577828, 8.733487, 4.8451247, -7.086863, -1.6046631, 0.32955948, -0.16192019, 0.04580637, -0.28336033
1565632577834, 8.721549, 5.007986, -7.0174074, -1.3196558, 0.30434144, -0.12463594, -0.039414786, -0.27483824
1565632577837, 8.762581, 5.2355127, -6.940767, -1.094524, 0.3144786, -0.07882957, -0.13315806, -0.27377295
1565632577847, 8.913175, 5.465435, -6.947952, -1.1400293, 0.36322394, -0.023435818, -0.21198763, -0.294013
1565632577852, 9.113171, 5.7815776, -6.935977, -1.2310401, 0.4356046, 0.023435818, -0.29507825, -0.31957933
1565632577855, 9.339248, 5.9947343, -7.0509377, -1.2525953, 0.49827966, 0.070307456, -0.36645097, -0.330232
1565632577859, 9.574883, 6.1719656, -7.1635036, -1.5064673, 0.5740718, 0.10439592, -0.42290998, -0.37390783
1565632577863, 9.909075, 6.449788, -7.3479204, -1.6118482, 0.6494008, 0.13741912, -0.49747851, -0.39414784
1565632577866, 10.158248, 6.622229, -7.510782, -1.710044, 0.7099858, 0.1768339, -0.5336975, -0.43356264
1565632577874, 10.322254, 6.7539554, -7.5467067, -1.9950514, 0.75612915, 0.21518342, -0.567786, -0.45060685
1565632577876, 10.495636, 6.8952613, -7.6401124, -2.059717, 0.8140907, 0.23222765, -0.60720074, -0.49002165
1565632577884, 10.718167, 6.952742, -7.8484793, -2.2225783, 0.8480743, 0.25672874, -0.624245, -0.5134575
1565632577885, 10.914005, 7.082073, -7.932305, -2.4572902, 0.87326545, 0.27696875, -0.6359629, -0.5305017
1565632577894, 11.0740185, 7.1395535, -8.044871, -2.6345215, 0.88010055, 0.29507825, -0.6327671, -0.535828
1565632577896, 11.154378, 7.1491337, -8.1143265, -2.7327175, 0.87268114, 0.30360037, -0.62104917, -0.53263223
1565632577904, 11.236258, 7.0413575, -8.248447, -2.938689, 0.8698052, 0.314253, -0.60507023, -0.5400891
1565632577905, 11.354639, 7.1778736, -8.265213, -3.0153298, 0.8621748, 0.32170987, -0.59867865, -0.5305017
1565632577913, 11.531343, 7.316785, -8.3322735, -3.163821, 0.8569349, 0.3270362, -0.59761333, -0.51984906
1565632577921, 11.506747, 7.3072047, -8.289163, -3.2093263, 0.8414881, 0.3206446, -0.572047, -0.5273059
1565632577923, 11.588987, 7.3479204, -8.339458, -3.2811768, 0.83261305, 0.314253, -0.5635249, -0.52624065
1565632577925, 11.767769, 7.4940166, -8.449629, -3.3051271, 0.82438874, 0.3110572, -0.5571333, -0.5219796
1565632577934, 12.109569, 7.7359133, -8.655601, -3.4464333, 0.84225243, 0.30146983, -0.56245965, -0.5496765
1565632577935, 12.434488, 8.1143265, -8.830438, -3.2859669, 0.84236026, 0.29188246, -0.5613944, -0.55606806
1565632577944, 12.603547, 8.164622, -9.036409, -3.2452517, 0.87141824, 0.28549087, -0.5784386, -0.5858955
1565632577945, 12.968024, 8.475974, -9.21364, -3.3817677, 0.89279205, 0.28016454, -0.5837649, -0.6146576
1565632577957, 13.277812, 8.6077, -9.541759, -3.3410523, 0.932867, 0.28229508, -0.6125271, -0.644485
1565632577959, 13.633281, 8.782537, -9.901011, -3.271597, 0.9725654, 0.29294774, -0.6263755, -0.68389976
1565632577966, 13.878996, 8.885523, -10.186019, -3.1494508, 1.0358348, 0.30466563, -0.65726817, -0.74035877
1565632577968, 14.071702, 8.859178, -10.483001, -3.1039455, 1.0713224, 0.31318775, -0.6828345, -0.7637946
1565632577975, 14.14243, 8.8951025, -10.540482, -3.1278956, 1.1194718, 0.3206446, -0.70840085, -0.80533993
1565632577977, 14.360243, 8.782537, -10.909314, -3.173401, 1.1541766, 0.3387541, -0.7307714, -0.8266452
1565632577985, 14.382502, 8.739427, -11.000325, -3.0776002, 1.2006916, 0.36751625, -0.76059884, -0.85327685
1565632577987, 14.582023, 8.765772, -11.208692, -3.187771, 1.2320077, 0.37923414, -0.7840346, -0.87138635
1565632577996, 14.626148, 8.602911, -11.369158, -3.2644117, 1.2520705, 0.38242993, -0.8021441, -0.88203895
1565632577998, 14.735829, 8.499925, -11.55597, -3.3697927, 1.2685398, 0.3834952, -0.8202536, -0.88843054
1565632578007, 14.819945, 8.384964, -11.735597, -3.4057178, 1.2888314, 0.3834952, -0.8479505, -0.89162636
1565632578009, 14.786618, 8.277188, -11.747571, -3.4823585, 1.2879682, 0.35579833, -0.85753787, -0.8926916
1565632578018, 14.855711, 8.262817, -11.812237, -3.5901344, 1.2917341, 0.34088463, -0.8724516, -0.88949585
1565632578019, 14.890726, 8.1071415, -11.948753, -3.6380348, 1.284314, 0.3206446, -0.8745821, -0.8841695
1565632578026, 14.724244, 7.9083548, -11.876903, -3.6332448, 1.2699212, 0.2972088, -0.88203895, -0.86392945
1565632578028, 14.670238, 7.810159, -11.888878, -3.5877395, 1.25159, 0.27377295, -0.8809737, -0.84581995
1565632578036, 14.587113, 7.6161623, -11.941567, -3.4895437, 1.2170827, 0.24501082, -0.8809737, -0.8032094
1565632578039, 14.519105, 7.606582, -11.893667, -3.3889527, 1.197432, 0.24074976, -0.8809737, -0.77444726
1565632578046, 14.358637, 7.5203614, -11.812237, -3.175796, 1.1697545, 0.23329292, -0.8831042, -0.7307714
1565632578048, 14.134251, 7.5059915, -11.577525, -3.0656252, 1.1440871, 0.21411815, -0.8852348, -0.6924219
1565632578055, 13.914204, 7.5874224, -11.318863, -2.8141482, 1.1166828, 0.22583607, -0.8724516, -0.6593987
1565632578062, 13.697999, 7.577842, -11.088941, -2.692002, 1.1086804, 0.23648871, -0.8681905, -0.64768076
1565632578065, 13.430636, 7.7167535, -10.732083, -2.3782544, 1.105107, 0.2514024, -0.86179894, -0.644485
1565632578066, 13.148698, 7.8652444, -10.296189, -2.2393434, 1.1063612, 0.26205507, -0.85540736, -0.6508766
1565632578077, 12.948397, 8.1071415, -9.865086, -2.1483326, 1.1268469, 0.29188246, -0.84581995, -0.6849651
1565632578078, 12.723395, 8.260423, -9.484278, -1.9232007, 1.158015, 0.33449304, -0.8309063, -0.7339672
1565632578089, 12.486529, 8.442444, -9.036409, -1.7268091, 1.1842396, 0.36112466, -0.8127968, -0.7819041
1565632578090, 12.173074, 8.392149, -8.657996, -1.6717237, 1.2560949, 0.39095205, -0.8181231, -0.8692558
1565632578104, 11.867461, 8.358619, -8.281978, -1.5423926, 1.3037697, 0.4079963, -0.80533993, -0.9406285
1565632578106, 11.741013, 8.432864, -7.9969707, -1.6693287, 1.3726903, 0.43995422, -0.7850999, -1.0365024
1565632578109, 11.442907, 8.200547, -7.774234, -1.8034497, 1.4397923, 0.4495416, -0.7765778, -1.1259845
1565632578111, 11.460885, 8.265213, -7.7167535, -1.8681153, 1.5150867, 0.44741106, -0.77444726, -1.2229236
1565632578117, 11.179953, 7.9155397, -7.6592727, -1.9160157, 1.583277, 0.43036684, -0.777643, -1.3102753
1565632578119, 11.075724, 7.668853, -7.664063, -2.2632935, 1.6520693, 0.42717105, -0.77231675, -1.3965617
1565632578127, 10.800161, 7.2401443, -7.685618, -2.2704787, 1.7064437, 0.39947417, -0.76485986, -1.4721955
1565632578129, 10.577798, 6.8497562, -7.690408, -2.4141798, 1.7611552, 0.37284255, -0.7680557, -1.5403724
1565632578139, 10.477994, 6.485713, -7.8532696, -2.459685, 1.7984375, 0.3334278, -0.7616641, -1.5947009
1565632578142, 10.213084, 6.0617948, -7.8436894, -2.4572902, 1.8101765, 0.29614353, -0.753142, -1.619202
1565632578147, 9.959574, 5.5636306, -7.8724294, -2.5027955, 1.8180947, 0.26312032, -0.7499462, -1.635181
1565632578149, 9.845907, 5.1900077, -7.9778104, -2.5219557, 1.8221197, 0.23435818, -0.7552725, -1.6415725
1565632578157, 9.697489, 4.9313455, -7.9706254, -2.4884255, 1.8258281, 0.19281286, -0.757403, -1.6500946
1565632578160, 9.710247, 4.756509, -8.095166, -2.4764502, 1.8192103, 0.15765914, -0.7680557, -1.6415725
1565632578168, 9.509546, 4.4259963, -8.080796, -2.3543043, 1.8130733, 0.128897, -0.7946873, -1.6245283
1565632578170, 9.3541355, 4.112249, -8.061636, -2.3662794, 1.7968845, 0.09054748, -0.8021441, -1.6053536
1565632578177, 9.210187, 3.8440065, -8.040081, -2.3255641, 1.7550173, 0.066046394, -0.8042747, -1.5584819
1565632578179, 9.118067, 3.6116896, -8.044871, -2.318379, 1.7140555, 0.023435818, -0.8117315, -1.5094798
1565632578187, 8.913034, 3.3482375, -7.927515, -2.320774, 1.6542686, -0.00958738, -0.8042747, -1.4455639
1565632578189, 8.755086, 3.1949563, -7.824529, -2.2848487, 1.5987504, -0.066046394, -0.80533993, -1.3795174
1565632578197, 8.623272, 3.0919704, -7.7335186, -2.2345533, 1.533555, -0.10865697, -0.7946873, -1.3070794
1565632578199, 8.543744, 3.0177248, -7.661668, -2.2776637, 1.4475282, -0.15659387, -0.7584683, -1.2229236
1565632578207, 8.314348, 2.914739, -7.4940166, -2.1148024, 1.3804911, -0.2034655, -0.7286409, -1.1547467
1565632578208, 8.309809, 3.0225148, -7.462881, -2.0549269, 1.3075973, -0.24714136, -0.6892261, -1.0833739
1565632578217, 8.342335, 3.2236965, -7.4652762, -1.8633252, 1.2499516, -0.2972088, -0.63915867, -1.0322412
1565632578218, 8.301047, 3.4560134, -7.31439, -1.8609302, 1.1958755, -0.33981937, -0.5933523, -0.98110855
1565632578227, 8.399297, 3.6739602, -7.3838453, -1.590293, 1.1434834, -0.35579833, -0.5273059, -0.9502159
1565632578232, 8.275405, 3.8200562, -7.213799, -1.3603711, 1.1181046, -0.3749731, -0.47830373, -0.93849796
1565632578237, 8.361645, 4.038003, -7.2257743, -1.1831397, 1.0801204, -0.37816888, -0.40586576, -0.9267801
1565632578238, 8.39181, 4.2056546, -7.1874537, -1.0370435, 1.0475087, -0.38136467, -0.34408042, -0.9129316
1565632578251, 8.408227, 4.2056546, -7.2401443, -0.76880133, 1.0265778, -0.38562572, -0.28868666, -0.90654004
1565632578252, 8.40382, 4.2032595, -7.2401443, -0.732876, 1.0004733, -0.3749731, -0.21944448, -0.9012137
1565632578257, 8.273563, 4.0859036, -7.1611085, -0.68976563, 0.98671323, -0.36432046, -0.14487597, -0.9054748
1565632578259, 8.365234, 4.126619, -7.247329, -0.6514453, 0.96588945, -0.3536678, -0.07243799, -0.89588743
1565632578268, 8.268857, 3.9733377, -7.213799, -0.74006104, 0.947746, -0.34621096, -0.01917476, -0.88203895
1565632578269, 8.209757, 3.7985013, -7.2449346, -0.6945557, 0.93190426, -0.33449304, 0.03089267, -0.8692558
1565632578282, 8.057217, 3.5973196, -7.1778736, -0.67539555, 0.90433484, -0.3121225, 0.09267801, -0.84368944
1565632578283, 7.9805517, 3.5039136, -7.1467385, -0.57959473, 0.8793227, -0.30466563, 0.13422333, -0.813862
1565632578288, 7.8238525, 3.2476466, -7.084468, -0.68976563, 0.84516364, -0.28229508, 0.16298546, -0.7797736
1565632578290, 7.8026123, 3.1925611, -7.0916533, -0.62989014, 0.8009698, -0.26738137, 0.19387813, -0.72970617
1565632578299, 7.652353, 2.9698243, -7.0245924, -0.62749517, 0.77923423, -0.2545982, 0.22264028, -0.70200926
1565632578300, 7.5720997, 2.9171338, -6.950347, -0.7209009, 0.7387454, -0.24394555, 0.25566345, -0.6487461
1565632578311, 7.51239, 2.818938, -6.9024467, -0.9196875, 0.6992039, -0.23329292, 0.26631612, -0.60293967
1565632578312, 7.443625, 2.8572583, -6.806646, -0.95561284, 0.6629968, -0.22903186, 0.27696875, -0.5571333
1565632578321, 7.4316, 2.8357031, -6.7683253, -1.1735597, 0.63944095, -0.23222765, 0.29294774, -0.5187838
1565632578322, 7.3835754, 2.9099488, -6.6773148, -1.2094849, 0.62814665, -0.25353295, 0.3121225, -0.4825648
1565632578332, 7.292838, 2.907554, -6.564749, -1.2789404, 0.6199885, -0.257794, 0.32277513, -0.46232477
1565632578333, 7.349652, 2.9506643, -6.595884, -1.343606, 0.6223233, -0.28016454, 0.35153726, -0.43036684
1565632578344, 7.3529387, 3.0033545, -6.564749, -1.3962965, 0.6254663, -0.2972088, 0.37284255, -0.4048005
1565632578346, 7.38043, 3.0249097, -6.588699, -1.3819263, 0.634785, -0.31957933, 0.39521313, -0.38029942
1565632578349, 7.3556557, 3.027305, -6.5479836, -1.4370118, 0.6398995, -0.3355583, 0.4079963, -0.36112466
1565632578350, 7.337982, 3.0416749, -6.488108, -1.5807129, 0.6706844, -0.3685815, 0.43888897, -0.34834146
1565632578359, 7.291207, 2.9817994, -6.5120583, -1.3651612, 0.6728526, -0.38562572, 0.45380265, -0.31318775
1565632578364, 7.160214, 2.8380983, -6.456973, -1.2334352, 0.6817035, -0.38456047, 0.49002165, -0.27696875
1565632578371, 7.2013206, 2.6896071, -6.586304, -1.1160791, 0.6986616, -0.4016047, 0.5134575, -0.2514024
1565632578372, 7.02347, 2.5890162, -6.449788, -1.0130934, 0.7062872, -0.4016047, 0.53795856, -0.21944448
1565632578380, 7.0629196, 2.4908204, -6.559959, -0.8047266, 0.699899, -0.3930826, 0.55074173, -0.17896444
1565632578381, 7.106857, 2.5027955, -6.6174393, -0.6730005, 0.6844115, -0.3717773, 0.55606806, -0.14487597
1565632578392, 7.045474, 2.3830445, -6.605464, -0.5724097, 0.6493798, -0.3472762, 0.5400891, -0.096939065
1565632578394, 7.15267, 2.3878345, -6.734795, -0.31853762, 0.62838775, -0.30786142, 0.5454154, -0.051132694
1565632578402, 7.1753964, 2.2896388, -6.7898808, -0.37601808, 0.589565, -0.27803403, 0.51984906, 0.0063915867
1565632578404, 7.146031, 2.304009, -6.7539554, -0.37601808, 0.5633235, -0.22796659, 0.5134575, 0.041545313
1565632578412, 7.1717134, 2.2441335, -6.806646, -0.25866213, 0.5295147, -0.18322548, 0.48682585, 0.099069595
1565632578414, 7.273136, 2.196233, -6.928792, -0.25866213, 0.5124741, -0.14168017, 0.4676511, 0.15446335
1565632578423, 7.328573, 2.320774, -6.945557, -0.28500733, 0.4991841, -0.08841695, 0.44421527, 0.20985709
1565632578425, 7.3997545, 2.3255641, -7.0102224, -0.4526587, 0.51236564, -0.039414786, 0.4346279, 0.26844665
1565632578431, 7.515095, 2.4812403, -7.060518, -0.6849756, 0.54168046, -0.00958738, 0.43569317, 0.32170987
1565632578433, 7.553654, 2.5985963, -7.031778, -0.9268726, 0.5926366, 0.0127831735, 0.45699844, 0.37710363
1565632578443, 7.7247944, 2.7566676, -7.110813, -1.2286451, 0.63847923, 0.02876214, 0.46978164, 0.4314321
1565632578445, 8.005246, 3.0344899, -7.2545147, -1.4992822, 0.68460125, 0.043675844, 0.48149952, 0.48469532
1565632578451, 8.117269, 2.9937747, -7.321575, -1.8226099, 0.74085903, 0.040480047, 0.51665324, 0.5294364
1565632578453, 8.244197, 2.9841945, -7.3766603, -2.1555176, 0.7974079, 0.014913702, 0.5336975, 0.59228706
1565632578463, 8.526656, 3.1302907, -7.573052, -2.3566992, 0.8585826, -0.010652645, 0.5635249, 0.64768076
1565632578465, 8.74146, 3.187771, -7.726333, -2.560276, 0.91579354, -0.05006743, 0.59228706, 0.69668293
1565632578470, 8.951081, 3.3171022, -7.822134, -2.816543, 0.9815341, -0.08948222, 0.6178534, 0.757403
1565632578472, 9.143883, 3.3123121, -8.0305, -2.8548634, 1.0611558, -0.14807177, 0.6540724, 0.8223842
1565632578480, 9.367192, 3.420088, -8.195757, -2.9794044, 1.1179523, -0.18961707, 0.67005134, 0.8745821
1565632578482, 9.504899, 3.4679885, -8.322693, -3.0081446, 1.1841539, -0.23542345, 0.69135666, 0.9321064
1565632578490, 9.602079, 3.542234, -8.4304695, -2.929109, 1.2607917, -0.2727077, 0.70840085, 1.0066749
1565632578492, 9.653166, 3.4751735, -8.5502205, -2.8285182, 1.3404355, -0.30360037, 0.7222493, 1.087635
1565632578500, 9.824067, 3.65959, -8.746612, -2.572251, 1.3875996, -0.30999196, 0.71798825, 1.1462245
1565632578502, 9.931435, 3.7170706, -8.914263, -2.3135889, 1.4431865, -0.30679616, 0.7222493, 1.2112057
1565632578510, 9.823743, 3.7314405, -8.844808, -2.0860622, 1.5034664, -0.2972088, 0.7126619, 1.2900352
1565632578512, 9.997827, 3.9278321, -9.0148535, -1.8058448, 1.5378634, -0.25246766, 0.69668293, 1.3475596
1565632578521, 10.035059, 4.164939, -8.981323, -1.6405884, 1.5778131, -0.21731395, 0.6775082, 1.4082797
1565632578525, 10.226314, 4.409231, -9.096285, -1.5471827, 1.6158969, -0.15020229, 0.6562029, 1.4689997
1565632578535, 10.461302, 4.5888577, -9.290281, -1.4394068, 1.6370062, -0.09374327, 0.63915867, 1.5041534
1565632578536, 10.709927, 4.869075, -9.410032, -1.5639478, 1.6706257, -0.043675844, 0.60293967, 1.5574167
1565632578544, 11.127553, 5.257068, -9.623189, -1.8920655, 1.6806504, 0.00958738, 0.5763081, 1.5787219
1565632578545, 11.473357, 5.597161, -9.817185, -1.9830762, 1.6902417, 0.035153728, 0.55606806, 1.5957662
1565632578555, 12.149966, 6.095325, -10.193204, -2.562671, 1.6976874, 0.026631612, 0.5422196, 1.6085494
1565632578556, 12.643533, 6.351592, -10.471025, -3.1422658, 1.6826684, 0.018109497, 0.50387007, 1.6053536
1565632578564, 12.923037, 6.576724, -10.633887, -3.2668068, 1.6755815, -0.0010652645, 0.49747851, 1.6000272
1565632578566, 13.237648, 6.7898808, -10.791959, -3.558999, 1.6725324, -0.02876214, 0.49321744, 1.5978967
1565632578574, 13.604, 6.8976564, -11.048225, -3.9278321, 1.6738857, -0.080960095, 0.48149952, 1.6010925
1565632578576, 13.833367, 6.9144216, -11.235037, -4.1625443, 1.6920427, -0.14274544, 0.4878911, 1.6138756
1565632578582, 14.00838, 6.854546, -11.385923, -4.4283915, 1.7168924, -0.22050974, 0.49960902, 1.627724
1565632578583, 14.175916, 6.8976564, -11.529625, -4.521797, 1.7602167, -0.29614353, 0.51984906, 1.655421
1565632578593, 13.580242, 6.4090724, -11.187137, -4.26553, 1.7971425, -0.34301516, 0.52837116, 1.6831179
1565632578595, 14.152401, 6.998247, -11.596685, -4.102669, 1.8272208, -0.41971418, 0.50387007, 1.7054884
1565632578605, 14.498601, 7.2904396, -11.874507, -4.006868, 1.8606843, -0.4878911, 0.48469532, 1.7289242
1565632578606, 14.670706, 7.2114043, -12.159514, -3.9206471, 1.8757209, -0.5400891, 0.47191215, 1.7331853
1565632578617, 14.35655, 6.9934573, -12.034974, -3.515889, 1.9212703, -0.5784386, 0.45912898, 1.7736653
1565632578620, 13.969964, 6.8689165, -11.826607, -2.8476784, 1.9647781, -0.57417756, 0.43036684, 1.8290591
1565632578622, 13.6213875, 6.70845, -11.64698, -2.2106032, 1.9981991, -0.5454154, 0.39521313, 1.881257
1565632578625, 13.60763, 6.847361, -11.635005, -1.705254, 2.0049248, -0.4889564, 0.35260254, 1.9121497
1565632578635, 13.601815, 6.8186207, -11.704461, -1.2334352, 2.0153446, -0.41438788, 0.29933932, 1.9494339
1565632578637, 13.675362, 6.950347, -11.742782, -0.9029224, 2.0151787, -0.3291667, 0.22796659, 1.9750003
1565632578642, 13.546643, 7.0509377, -11.55597, -0.50534916, 2.017238, -0.2396845, 0.16298546, 1.9963056
1565632578645, 13.442535, 7.0988383, -11.407478, -0.42152345, 2.0092688, -0.13209279, 0.068176925, 2.0037625
1565632578652, 13.31485, 7.204219, -11.196717, -0.1341211, 2.0144796, -0.015978966, 0.002130529, 2.014415
1565632578667, 13.299301, 7.359895, -11.076965, -0.06466553, 2.0087595, 0.096939065, -0.07989483, 2.0048277
1565632578669, 13.07263, 7.553892, -10.667418, 0.19639161, 2.011916, 0.23648871, -0.19068234, 1.9888487
1565632578670, 12.784726, 7.5970025, -10.27224, 0.46463382, 2.02656, 0.37071204, -0.28549087, 1.9718045
1565632578672, 12.688513, 7.800579, -10.001602, 0.3424878, 2.0397434, 0.51984906, -0.37923414, 1.9355855
1565632578674, 12.45481, 7.8844047, -9.639954, 0.17244141, 2.0527267, 0.63915867, -0.48363006, 1.8897791
1565632578686, 12.244571, 7.9227247, -9.335787, 0.05508545, 2.0774999, 0.7637946, -0.57311225, 1.845038
1565632578687, 12.151091, 8.047266, -9.09868, -0.32332766, 2.0951617, 0.8692558, -0.6508766, 1.7917749
1565632578694, 12.020259, 8.102351, -8.849598, -0.7232959, 2.1072736, 0.94595486, -0.73609775, 1.7331853
1565632578696, 11.84003, 8.023315, -8.643626, -1.0490186, 2.1084976, 1.0002834, -0.8159926, 1.6671388
1565632578703, 11.757342, 8.071217, -8.428074, -1.4346168, 2.1107278, 1.0439591, -0.89162636, 1.603223
1565632578705, 11.640922, 8.040081, -8.202942, -1.8920655, 2.116976, 1.0695255, -0.94808537, 1.5616777
1565632578714, 11.398807, 7.812554, -8.006551, -2.189048, 2.0980015, 1.0833739, -0.99708754, 1.4945661
1565632578715, 11.285721, 7.831714, -7.7694435, -2.3806496, 2.0758402, 1.0791129, -1.0301107, 1.4434333
1565632578726, 11.257672, 7.8341093, -7.582632, -2.804568, 2.017895, 1.0503508, -1.0407634, 1.3731259
1565632578728, 11.372677, 7.8724294, -7.5251517, -3.276387, 1.9492925, 0.99921805, -1.0237192, 1.3241237
1565632578734, 11.388342, 7.8029737, -7.4916215, -3.5613942, 1.8526514, 0.9416938, -0.99069595, 1.2506205
1565632578736, 11.376485, 7.89638, -7.2593045, -3.791316, 1.7451311, 0.8671253, -0.9395633, 1.1877699
1565632578744, 11.493207, 7.92512, -7.2425394, -4.102669, 1.6175925, 0.77444726, -0.87777793, 1.1163971
1565632578746, 11.435976, 7.822134, -7.185059, -4.239185, 1.5016625, 0.6743124, -0.8213189, 1.0610034
1565632578755, 11.286555, 7.6520877, -7.151529, -4.2056546, 1.3804812, 0.5858955, -0.75101143, 0.99921805
1565632578757, 11.285464, 7.647298, -7.199429, -4.129014, 1.2705158, 0.515588, -0.6764429, 0.9438243
1565632578767, 11.143127, 7.5946074, -7.1706886, -3.8823268, 1.1508697, 0.4314321, -0.6018744, 0.8809737
1565632578770, 11.174629, 7.556287, -7.223379, -3.9493873, 1.0448121, 0.3568636, -0.52837116, 0.8277105
1565632578774, 11.092635, 7.537127, -7.2353544, -3.7266505, 0.9405899, 0.28868666, -0.45806372, 0.76912093
1565632578776, 11.011368, 7.472461, -7.2928348, -3.4967287, 0.8506028, 0.23542345, -0.386691, 0.72011876
1565632578785, 10.888419, 7.3646855, -7.29523, -3.3314724, 0.7549306, 0.17576863, -0.3206446, 0.660464
1565632578787, 10.839849, 7.3096, -7.32876, -3.2189064, 0.6815661, 0.13422333, -0.24927188, 0.6199839
1565632578794, 10.767561, 7.2904396, -7.3551054, -2.9482691, 0.60883754, 0.099069595, -0.18002969, 0.57311225
1565632578796, 10.640721, 7.2114043, -7.3072047, -2.7973828, 0.5367336, 0.070307456, -0.10333065, 0.5219796
1565632578806, 10.597868, 7.182664, -7.34313, -2.6081765, 0.47918198, 0.05006743, -0.01917476, 0.47617322
1565632578807, 10.458133, 7.1419487, -7.2353544, -2.4525, 0.43825373, 0.043675844, 0.070307456, 0.43036684
1565632578814, 10.289303, 6.991062, -7.165899, -2.3758595, 0.42723876, 0.03834952, 0.17044231, 0.3898868
1565632578815, 10.236774, 7.110813, -6.9790874, -2.3495142, 0.44527674, 0.01917476, 0.27803403, 0.3472762
1565632578825, 9.997745, 6.837781, -6.8976564, -2.3710694, 0.48409912, 0.017044231, 0.37923414, 0.30040458
1565632578830, 9.743563, 6.6916847, -6.70845, -2.2704787, 0.5513482, 0.013848438, 0.4825648, 0.26631612
1565632578836, 9.560311, 6.6126494, -6.5288234, -2.2465284, 0.6342046, -0.0010652645, 0.5901565, 0.23222765
1565632578837, 9.418555, 6.4905033, -6.3947024, -2.3854396, 0.72334594, -0.017044231, 0.6945524, 0.20133498
1565632578846, 9.3137245, 6.351592, -6.3779373, -2.3926246, 0.808401, -0.046871636, 0.7914915, 0.15765914
1565632578848, 9.177321, 6.183941, -6.2965064, -2.5171657, 0.9074309, -0.07989483, 0.8948221, 0.12783173
1565632578858, 9.109931, 6.2031007, -6.1408305, -2.6081765, 1.0014449, -0.10972224, 0.9917612, 0.08522116
1565632578860, 9.042179, 5.9396486, -6.236631, -2.7542725, 1.1046423, -0.14061491, 1.0950918, 0.035153728
1565632578868, 8.900975, 5.8342676, -6.1575956, -2.6967921, 1.1861949, -0.18429075, 1.171791, 0.0010652645
1565632578870, 8.723069, 5.5875807, -6.11688, -2.7303224, 1.2694154, -0.21624869, 1.2506205, -0.024501082
1565632578876, 8.580353, 5.2810183, -6.207891, -2.682422, 1.3403068, -0.25672874, 1.3145363, -0.05006743
1565632578878, 8.460349, 5.010381, -6.2965064, -2.6129665, 1.4004059, -0.294013, 1.3677995, -0.06178534
1565632578888, 8.394314, 4.8044095, -6.373147, -2.6009912, 1.4368953, -0.3121225, 1.4008228, -0.070307456
1565632578890, 8.259489, 4.4906616, -6.4138627, -2.6297317, 1.4683731, -0.35899413, 1.4221281, -0.06924219
1565632578896, 8.1684265, 4.2439747, -6.473738, -2.6081765, 1.4969623, -0.3888215, 1.4434333, -0.07882957
1565632578898, 8.117055, 3.999683, -6.5360084, -2.6776319, 1.5009228, -0.43249738, 1.4359765, -0.060720075
1565632578906, 8.1547785, 3.894302, -6.6485744, -2.6704469, 1.5067303, -0.46658584, 1.4317155, -0.05219796
1565632578908, 8.141828, 3.8296363, -6.6844997, -2.6345215, 1.5120434, -0.50600064, 1.4242586, -0.041545313
1565632578916, 8.1235895, 3.6739602, -6.7850904, -2.5411158, 1.5078497, -0.54648066, 1.4050838, -0.026631612
1565632578919, 8.316294, 3.8080812, -6.957532, -2.5004005, 1.4935118, -0.57417756, 1.3784522, -0.027696876
1565632578926, 8.351132, 3.8008962, -7.038963, -2.3974147, 1.4616073, -0.5858955, 1.3390374, -0.0010652645
1565632578929, 8.4515505, 3.7434156, -7.2425394, -2.2273684, 1.4307481, -0.60293967, 1.2974921, 0.004261058
1565632578936, 8.566517, 3.8152664, -7.3622904, -2.1507277, 1.4027288, -0.61572284, 1.2602079, 0.020240024
1565632578938, 8.741638, 3.6811452, -7.577842, -2.3327491, 1.346546, -0.62531024, 1.1920309, 0.035153728
1565632578946, 8.640005, 3.5805542, -7.647298, -1.829795, 1.2847769, -0.6295713, 1.1185277, 0.056459017
1565632578958, 8.783711, 3.7338357, -7.7383084, -1.8250049, 1.2237636, -0.6061355, 1.0599382, 0.082025364
1565632578959, 8.920563, 3.8056862, -7.8868, -1.7004639, 1.1579126, -0.5965481, 0.98856544, 0.08735169
1565632578961, 8.941422, 3.894302, -7.893985, -1.5711329, 1.0883244, -0.5699165, 0.9193232, 0.12037488
1565632578967, 9.200546, 3.9517825, -8.171807, -1.5016773, 1.0179303, -0.5411543, 0.8511463, 0.13741912
1565632578968, 9.210337, 3.891907, -8.234077, -1.3723463, 0.9513378, -0.5113269, 0.7861652, 0.15978967
1565632578979, 9.314493, 3.9350173, -8.349038, -1.2525953, 0.90238214, -0.48469532, 0.737163, 0.18961707
1565632578981, 9.3737135, 4.0811133, -8.365804, -1.1064991, 0.82040167, -0.4463458, 0.65726817, 0.20453078
1565632578986, 9.330109, 4.112249, -8.315508, -0.9963282, 0.7573093, -0.39627838, 0.60293967, 0.23009712
1565632578988, 9.355343, 4.2990603, -8.270002, -0.8047266, 0.686285, -0.3323625, 0.5432849, 0.25566345
1565632578999, 9.298632, 4.3206153, -8.217313, -0.5221143, 0.5875337, -0.2514024, 0.4612595, 0.26312032
1565632579001, 9.228883, 4.394861, -8.0999565, -0.4981641, 0.49940458, -0.16192019, 0.3930826, 0.26205507
1565632579008, 9.345758, 4.600833, -8.123906, -0.42152345, 0.4169568, -0.082025364, 0.30360037, 0.27377295
1565632579011, 9.334288, 4.598438, -8.119117, -0.25147706, 0.34823886, 0.015978966, 0.21731395, 0.27164245
1565632579018, 9.576763, 4.8020144, -8.277188, -0.3784131, 0.3097814, 0.099069595, 0.10013486, 0.2759035
1565632579020, 9.699661, 4.754114, -8.4376545, -0.5364844, 0.33848098, 0.18748654, -0.018109497, 0.28122982
1565632579027, 9.859711, 4.7876444, -8.595725, -0.63707525, 0.4142509, 0.26631612, -0.14487597, 0.28229508
1565632579029, 9.956618, 4.663103, -8.756192, -0.847837, 0.53115904, 0.33768883, -0.28016454, 0.29933932
1565632579037, 10.114469, 4.711004, -8.885523, -1.0753639, 0.65792394, 0.39627838, -0.4293016, 0.30253512
1565632579040, 10.431401, 4.8044095, -9.15616, -1.3771362, 0.78485775, 0.45699844, -0.5571333, 0.3110572
1565632579047, 10.663337, 4.9505057, -9.283096, -1.7387843, 0.92177457, 0.51984906, -0.69135666, 0.31851408
1565632579050, 10.814677, 4.926555, -9.414823, -2.0118165, 1.0391271, 0.5550028, -0.8149273, 0.32810146
1565632579057, 10.942019, 5.039121, -9.462723, -2.189048, 1.1662467, 0.59761333, -0.9416938, 0.34088463
1565632579058, 10.926366, 4.9409256, -9.4507475, -2.3782544, 1.2731175, 0.6306366, -1.0471549, 0.35579833
1565632579067, 10.921186, 4.90979, -9.455538, -2.3998096, 1.3893491, 0.68389976, -1.1494204, 0.37603834
1565632579068, 10.975944, 4.981641, -9.426797, -2.6057813, 1.4901363, 0.7233146, -1.2420983, 0.3930826
1565632579077, 10.976818, 5.000801, -9.321417, -2.931504, 1.5617696, 0.75101143, -1.3081448, 0.4048005
1565632579078, 11.170325, 5.1612673, -9.328602, -3.3338673, 1.6147642, 0.77125144, -1.3518206, 0.43036684
1565632579087, 11.19901, 5.1852174, -9.285491, -3.5087037, 1.6365604, 0.77231675, -1.3731259, 0.44315
1565632579096, 11.209254, 5.149292, -9.14179, -3.9445972, 1.6747193, 0.777643, -1.406149, 0.47191215
1565632579098, 11.394948, 5.223538, -9.266331, -4.0859036, 1.7129704, 0.76059884, -1.4508902, 0.5006743
1565632579100, 11.416597, 5.0726514, -9.275911, -4.3086405, 1.7482495, 0.7392935, -1.4881744, 0.5432849
1565632579108, 11.664496, 5.0271463, -9.400452, -4.734954, 1.7573819, 0.69029135, -1.5094798, 0.5773733
1565632579109, 12.023336, 5.0510964, -9.623189, -5.142107, 1.7259303, 0.62531024, -1.4892397, 0.608266
1565632579118, 12.452781, 5.4342995, -9.881851, -5.2810183, 1.7267743, 0.5656554, -1.5073493, 0.624245
1565632579119, 12.819976, 5.733677, -10.214759, -5.2091675, 1.722749, 0.50173956, -1.5243934, 0.6263755
1565632579128, 13.245877, 6.05461, -10.502161, -5.3384986, 1.7127441, 0.43675843, -1.5403724, 0.608266
1565632579129, 13.270322, 6.1719656, -10.518927, -5.230723, 1.68654, 0.41864893, -1.5158713, 0.60933125
1565632579142, 13.186249, 6.4162574, -10.564431, -4.5936475, 1.6982293, 0.40053943, -1.5403724, 0.59228706
1565632579143, 13.971612, 7.053333, -11.060201, -4.8091993, 1.6889182, 0.36645097, -1.5595472, 0.53476274
1565632579149, 14.733765, 7.6185575, -11.567945, -5.022356, 1.6927638, 0.3153183, -1.6000272, 0.45380265
1565632579151, 15.231675, 7.8844047, -11.934382, -5.2355127, 1.6961251, 0.27483824, -1.6309199, 0.37603834
1565632579161, 15.604721, 8.174202, -12.121195, -5.455855, 1.6822826, 0.22050974, -1.6437031, 0.28229508
1565632579162, 15.641996, 8.121511, -12.152329, -5.5708156, 1.663822, 0.14168017, -1.6468989, 0.18961707
1565632579171, 15.796924, 8.178992, -12.264895, -5.6761966, 1.6498647, 0.083090626, -1.6426378, 0.12996227
1565632579172, 15.840759, 8.222102, -12.279265, -5.704937, 1.6276442, 0.015978966, -1.6266588, 0.054328486
1565632579180, 15.9185295, 8.293953, -12.365486, -5.630691, 1.594496, -0.05219796, -1.5936357, 0.004261058
1565632579181, 16.089664, 8.346643, -12.492422, -5.757627, 1.546462, -0.12996227, -1.5403724, -0.043675844
1565632579191, 16.330084, 8.344249, -12.73432, -5.9061184, 1.498436, -0.20879184, -1.4807175, -0.0958738
1565632579194, 16.288647, 8.363408, -12.576248, -6.100115, 1.4143074, -0.29614353, -1.3763217, -0.13528858
1565632579198, 16.370932, 8.432864, -12.648099, -6.0761647, 1.35066, -0.3920173, -1.2815131, -0.16831179
1565632579202, 16.28237, 8.617281, -12.492422, -5.8989334, 1.2673231, -0.47191215, -1.1590078, -0.20026971
1565632579210, 16.042082, 8.5598, -12.317586, -5.688172, 1.1887859, -0.5454154, -1.0279802, -0.2428803
1565632579212, 15.859407, 8.871153, -12.049344, -5.257068, 1.1097132, -0.6135923, -0.8841695, -0.27057716
1565632579222, 15.692628, 8.933423, -11.896063, -4.993616, 1.0421302, -0.65726817, -0.73822826, -0.330232
1565632579224, 15.506577, 9.053174, -11.704461, -4.636758, 0.9955892, -0.700944, -0.58696073, -0.39414784
1565632579231, 15.27181, 9.148975, -11.433824, -4.3349857, 0.9606784, -0.73290193, -0.42290998, -0.45486793
1565632579233, 14.880514, 9.110655, -11.079361, -3.9589674, 0.95483655, -0.753142, -0.25992453, -0.52624065
1565632579242, 14.418854, 8.978929, -10.720108, -3.515889, 0.977002, -0.7595336, -0.101200126, -0.6061355
1565632579244, 13.997397, 8.926238, -10.34888, -3.0249097, 1.0169822, -0.7552725, 0.043675844, -0.67963874
1565632579252, 13.646406, 8.801697, -10.109378, -2.560276, 1.0815314, -0.73822826, 0.18216023, -0.76912093
1565632579253, 13.328919, 8.780142, -9.78605, -2.191443, 1.1531368, -0.70840085, 0.29188246, -0.86179894
1565632579262, 12.991273, 8.62207, -9.527389, -1.9136207, 1.2508155, -0.69029135, 0.38242993, -0.97045594
1565632579265, 12.666892, 8.48316, -9.266331, -1.6190332, 1.3421326, -0.6402239, 0.45912898, -1.0865698
1565632579271, 12.380189, 8.262817, -9.125025, -1.3148658, 1.4297614, -0.5773733, 0.5091964, -1.2048141
1565632579273, 12.002472, 7.9706254, -8.921448, -0.96758795, 1.5288717, -0.5368933, 0.5592638, -1.3177321
1565632579283, 11.856449, 7.7359133, -8.902288, -1.2166699, 1.6158361, -0.48469532, 0.5603291, -1.4359765
1565632579285, 11.620955, 7.5155716, -8.828042, -0.7927515, 1.6835469, -0.4133226, 0.5571333, -1.5339808
1565632579291, 11.328806, 7.1467385, -8.763377, -0.6849756, 1.7699252, -0.36645097, 0.5635249, -1.6373115
1565632579293, 11.121372, 6.7300053, -8.799302, -0.98195803, 1.8311428, -0.31957933, 0.5187838, -1.7267936
1565632579300, 10.920773, 6.2917166, -8.890313, -0.79993653, 1.8703157, -0.2790993, 0.4495416, -1.7939054
1565632579302, 10.751335, 5.9540186, -8.892708, -1.0298585, 1.9281431, -0.23755397, 0.40266997, -1.8706044
1565632579310, 10.603592, 5.6642213, -8.892708, -1.1280543, 1.9738741, -0.21411815, 0.34088463, -1.9323897
1565632579313, 10.527076, 5.369634, -8.952583, -1.3555812, 1.9937736, -0.20133498, 0.25992453, -1.9664782
1565632579320, 10.4305, 5.0271463, -9.034014, -1.3819263, 2.021222, -0.18535602, 0.17789917, -2.0048277
1565632579321, 10.381447, 4.744534, -9.096285, -1.587898, 2.0405743, -0.19068234, 0.11717909, -2.0282636
1565632579330, 10.214457, 4.497847, -9.034014, -1.5783179, 2.0375082, -0.19281286, 0.020240024, -2.0282636
1565632579331, 10.005262, 4.1170387, -8.981323, -1.5783179, 2.0233982, -0.19387813, -0.08522116, -2.0122845
1565632579340, 9.809117, 3.4248781, -9.053174, -1.590293, 1.977827, -0.20026971, -0.20559604, -1.9568908
1565632579348, 9.666448, 2.7806177, -9.08431, -1.7842896, 1.9206936, -0.22903186, -0.3057309, -1.8823223
1565632579350, 9.571237, 2.208208, -9.074729, -2.0932472, 1.8543085, -0.28336033, -0.41758367, -1.784318
1565632579352, 9.731353, 2.074087, -9.158555, -2.5530908, 1.7926351, -0.36645097, -0.5070659, -1.6799221
1565632579364, 9.756381, 1.7866846, -9.172925, -2.802173, 1.7317419, -0.47404268, -0.58483016, -1.5595472
