TimeStamp(epoch),mAccelerometerMagnitude(m/s^2),mAccelerometerX(m/s^2),mAccelerometerY(m/s^2),mAccelerometerZ(m/s^2),mGyroscopeMagnitude(rad/s),mGyroscopeX(rad/s),mGyroscopeY(rad/s),mGyroscopeZ(rad/s) 
1565633690569, 8.738642, 0.8669971, 3.300337, 8.044871, 0.27349302, 0.19600865, 0.16298546, -0.099069595
1565633690570, 8.903777, 0.83586186, 3.2284865, 8.255632, 0.31389531, 0.18216023, 0.24607609, -0.06924219
1565633690580, 8.912199, 0.79993653, 2.9530592, 8.370594, 0.35696056, 0.16937704, 0.3121225, -0.036218993
1565633690581, 9.074463, 0.7927515, 3.0033545, 8.52627, 0.41247198, 0.14913702, 0.38456047, -0.002130529
1565633690590, 9.311791, 0.7544312, 3.0704153, 8.758587, 0.44665715, 0.13422333, 0.4250405, 0.02876214
1565633690590, 9.706698, 0.85023195, 3.0368848, 9.18011, 0.48927307, 0.13635385, 0.4676511, 0.04580637
1565633690600, 10.055774, 0.99393314, 2.9913795, 9.5489435, 0.5182618, 0.15339808, 0.49002165, 0.070307456
1565633690600, 10.216875, 1.2454102, 2.9099488, 9.7142, 0.5246966, 0.18002969, 0.4889564, 0.06178534
1565633690612, 10.31541, 1.2406201, 2.823728, 9.843531, 0.53165233, 0.21198763, 0.48363006, 0.06178534
1565633690612, 9.952645, 1.4322218, 2.6896071, 9.474698, 0.4686546, 0.23329292, 0.40266997, 0.05539375
1565633690621, 10.747186, 1.7172291, 2.4692652, 10.317744, 0.38882884, 0.2545982, 0.29294774, 0.023435818
1565633690622, 10.07804, 1.9303858, 2.2058132, 9.642349, 0.28439766, 0.24607609, 0.14168017, -0.015978966
1565633690631, 9.996012, 2.4908204, 2.1507277, 9.438772, 0.23518954, 0.221575, -0.002130529, -0.07882957
1565633690632, 9.773701, 2.5578809, 1.9447559, 9.230406, 0.2612158, 0.16937704, -0.14061491, -0.14061491
1565633690642, 9.223923, 2.8907888, 1.7794995, 8.576566, 0.35511035, 0.11717909, -0.2727077, -0.1949434
1565633690643, 9.647457, 2.9626393, 1.7771046, 9.0076685, 0.4612066, 0.040480047, -0.38242993, -0.2545982
1565633690652, 8.462848, 3.2260914, 1.6525636, 7.647298, 0.57669586, -0.026631612, -0.46978164, -0.3334278
1565633690653, 8.922599, 3.278782, 1.585503, 8.145462, 0.6674959, -0.11504856, -0.5294364, -0.3898868
1565633690663, 7.9337454, 3.3530276, 1.3603711, 7.060518, 0.77194786, -0.23116238, -0.58909124, -0.44208476
1565633690663, 8.181563, 3.3673975, 1.3867164, 7.326365, 0.8564759, -0.31638354, -0.6221144, -0.49641323
1565633690673, 7.888107, 3.4296682, 1.2981006, 6.983877, 0.9544169, -0.41438788, -0.6530071, -0.5592638
1565633690673, 7.492335, 3.6212697, 1.1256592, 6.461763, 1.0408577, -0.49641323, -0.66579026, -0.62744075
1565633690682, 7.9698424, 3.4344583, 1.2382251, 7.084468, 1.080644, -0.58056915, -0.6423545, -0.6466155
1565633690683, 7.6678567, 3.1494508, 1.8058448, 6.7539554, 1.1579067, -0.6412892, -0.64341974, -0.71798825
1565633690693, 8.311757, 3.4871485, 0.93405765, 7.486831, 1.189961, -0.6924219, -0.5901565, -0.7669904
1565633690693, 7.332952, 3.422483, 0.7831714, 6.437813, 1.2393953, -0.74675035, -0.51984906, -0.84155893
1565633690703, 7.6673603, 3.2141163, 0.88376224, 6.9048414, 1.2505615, -0.7584683, -0.43569317, -0.89375687
1565633690704, 7.493071, 3.04407, 1.0801538, 6.7611403, 1.274376, -0.79894835, -0.36964676, -0.9214538
1565633690713, 7.4158416, 2.912344, 1.0130934, 6.744375, 1.2915162, -0.8085357, -0.29827404, -0.9619338
1565633690713, 7.4179525, 2.8380983, 1.0154883, 6.7779055, 1.3110125, -0.82344943, -0.22050974, -0.9960223
1565633690723, 7.593794, 2.3854396, 0.9484278, 7.1467385, 1.340606, -0.83942837, -0.21624869, -1.0226538
1565633690724, 8.105644, 1.6669337, 1.2597803, 7.831714, 1.3943498, -0.87138635, -0.3291667, -1.0375676
1565633690734, 9.687749, 0.5460645, 1.7483643, 9.513018, 1.4798076, -0.90973586, -0.58696073, -1.0088054
1565633690735, 11.873203, -0.62989014, 2.5459058, 11.57992, 1.7840457, -0.9821738, -1.1195929, -0.9821738
1565633690744, 14.096806, -2.0237916, 3.1446607, 13.591737, 2.1103003, -1.026915, -1.6106799, -0.8969527
1565633690744, 16.242407, -4.0020776, 4.071533, 15.205979, 1.9933071, -0.84688526, -1.6479641, -0.7350325
1565633690754, 18.379522, -5.1157618, 5.127737, 16.892073, 1.8985767, -0.6423545, -1.7033578, -0.5390238
1565633690754, 15.176658, -4.1218286, 4.785249, 13.800103, 1.6431206, -0.47830373, -1.5286545, -0.36645097
1565633690762, 13.561215, -3.4943337, 4.138594, 12.432547, 1.2906812, -0.22370553, -1.2495552, -0.23329292
1565633690762, 13.596559, -3.0153298, 3.9901028, 12.643309, 1.0153898, 0.08628642, -1.0088054, -0.07669904
1565633690774, 12.968507, -2.3543043, 3.7218604, 12.197835, 0.8728501, 0.34408042, -0.8021441, 0.0063915867
1565633690775, 11.525863, -1.2430152, 3.2165112, 10.997931, 0.8837234, 0.5251754, -0.7094661, 0.04261058
1565633690784, 10.020493, 0.2802173, 2.6345215, 9.663904, 0.88291407, 0.6199839, -0.628506, 0.011717909
1565633690785, 8.431919, 1.3603711, 2.3423293, 7.9849954, 0.85584235, 0.64768076, -0.5581986, -0.037284255
1565633690793, 7.402581, 1.8010547, 2.327959, 6.792276, 0.8100697, 0.5933523, -0.5496765, -0.04474111
1565633690794, 6.503612, 2.2728736, 2.3638844, 5.616321, 0.7338721, 0.49215218, -0.5273059, -0.13528858
1565633690805, 5.864439, 2.6297317, 2.1555176, 4.7780643, 0.6287669, 0.3110572, -0.5432849, -0.058589544
1565633690805, 5.2450104, 1.7914747, 3.3602126, 3.6068995, 0.6795093, 0.06391586, -0.6764429, -0.008522116
1565633690814, 4.9182887, 2.2321582, 2.6608667, 3.4823585, 0.7970727, -0.23329292, -0.7616641, -0.027696876
1565633690814, 3.4633524, 2.7710378, 1.9950514, 0.57959473, 0.9800953, -0.58269966, -0.78296936, -0.08948222
1565633690825, 3.8747082, 3.05844, 1.8489552, 1.4968873, 1.2964238, -0.96619487, -0.8447547, -0.18322548
1565633690825, 4.122583, 3.6859353, 1.8010547, -0.40715334, 1.7035354, -1.3731259, -0.9555422, -0.32170987
1565633690835, 4.6995106, 4.232, 1.9926564, 0.4526587, 2.179783, -1.8002969, -1.1185277, -0.5091964
1565633690835, 5.3446546, 5.0510964, 1.6357985, -0.613125, 2.6693165, -2.2583606, -1.2378373, -0.70200926
1565633690845, 4.9922056, 4.7636943, 1.4801221, 0.19639161, 2.9817238, -2.6035063, -1.1419635, -0.8990832
1565633690846, 5.4275794, 4.634363, 2.2058132, 1.7651294, 3.2127526, -2.8708878, -0.9779128, -1.0599382
1565633690855, 5.63539, 4.1721244, 2.3638844, 2.9602442, 3.3966813, -3.0423954, -0.9289106, -1.1909657
1565633690856, 7.4707146, 4.028423, 2.4189699, 5.807923, 3.4963574, -3.1329427, -0.8788432, -1.2793826
1565633690865, 7.064122, 3.297942, 2.2393434, 5.831873, 3.4918509, -3.1116376, -0.8863, -1.3134711
1565633690865, 9.404127, 2.5698562, 2.3447242, 8.737032, 3.3789184, -2.936934, -0.92997587, -1.3880396
1565633690875, 10.307927, 3.2859669, 2.2872438, 9.498648, 3.2075129, -2.683401, -1.0407634, -1.4157364
1565633690876, 12.080969, 2.6105714, 2.2201831, 11.58471, 2.97577, -2.3457124, -1.2101405, -1.3741912
1565633690886, 12.896106, 2.0237916, 2.198628, 12.545113, 2.7398002, -1.9526298, -1.4370418, -1.2761868
1565633690886, 13.226976, 1.6046631, 2.1195924, 12.957056, 2.5122752, -1.5052186, -1.6543556, -1.144094
1565633690895, 14.30035, 1.0657837, 2.0237916, 14.116245, 2.347474, -1.051416, -1.8322549, -1.0237192
1565633690896, 13.088854, 0.78556645, 1.6405884, 12.961846, 2.2826264, -0.5944176, -2.005893, -0.9129316
1565633690906, 14.546417, 0.7783814, 1.5783179, 14.439573, 2.336286, -0.15978967, -2.1923141, -0.7914915
1565633690906, 12.678944, 1.3962965, 1.1687696, 12.547508, 2.5215602, 0.1949434, -2.424542, -0.664725
1565633690916, 12.582767, 1.6214283, 0.9436377, 12.442127, 2.673264, 0.50387007, -2.569418, -0.5390238
1565633690916, 11.119584, 1.3771362, 0.79754156, 11.0051155, 2.8333657, 0.72437984, -2.7036412, -0.43995422
1565633690925, 9.496947, 1.5447876, 0.49576905, 9.357342, 3.0605152, 0.87777793, -2.9060414, -0.3888215
1565633690925, 8.612829, 1.6310084, 0.49576905, 8.442444, 3.3579047, 0.99282646, -3.1883366, -0.35260254
1565633690935, 7.7739525, 1.8369801, 0.3784131, 7.544312, 3.6888337, 1.0567423, -3.5185685, -0.3323625
1565633690936, 6.683622, 1.7124391, 0.122146, 6.4593678, 3.9770901, 1.0940266, -3.8125815, -0.2908172
1565633690945, 5.505142, 1.1783496, 0.33290774, 5.367239, 4.1895447, 1.103614, -4.036287, -0.2066613
1565633690946, 4.0137944, 0.72569096, 0.57001466, 3.906277, 4.4553485, 1.0301107, -4.3334956, -0.099069595
1565633690956, 3.0906715, 1.336421, 0.35685793, 2.7638526, 4.623892, 0.97471696, -4.519917, 0.025566347
1565633690956, 2.8155174, 0.5604346, 0.67539555, 2.675237, 4.793152, 0.9108011, -4.7031426, 0.1587244
1565633690965, 3.0625496, 0.1460962, 0.80712163, 2.9506643, 5.105054, 0.9012137, -5.0163302, 0.29294774
1565633690966, 4.1588316, 0.31853762, 0.92208254, 4.0427933, 5.425641, 0.93636745, -5.329518, 0.39627838
1565633690976, 3.3323288, 0.23471193, 0.90052736, 3.1997461, 5.650695, 0.91612744, -5.550028, 0.5368933
1565633690976, 2.444387, 0.17962648, 0.92926764, 2.2537134, 5.8542647, 0.8628642, -5.7449713, 0.7233146
1565633690986, 1.6951613, 0.38559815, 0.68018556, 1.5040723, 5.9613404, 0.757403, -5.83978, 0.92784536
1565633690987, 1.0969609, 0.7185059, 0.42152345, 0.71371585, 5.9762793, 0.6295713, -5.8291273, 1.1579424
1565633690996, 1.3633491, 1.334026, 0.2802173, 0.023950197, 5.8878517, 0.50387007, -5.7108827, 1.3411679
1565633690996, 2.4585598, 2.193838, 0.244292, -1.0825489, 5.468498, 0.14061491, -5.231514, 1.5861788
1565633691006, 6.42098, 2.579436, 0.87178713, -5.815108, 5.2260523, -0.26418558, -4.89276, 1.8173412
1565633691007, 4.8705826, 4.253555, -0.17483643, -2.3662794, 5.096456, -0.52411014, -4.676511, 1.9568908
1565633691016, 5.300735, 4.8906302, -1.22625, -1.6357985, 5.069801, -0.76272935, -4.5657234, 2.0676782
1565633691017, 6.197498, 5.9540186, -1.7148341, -0.1341211, 4.9827847, -0.8905611, -4.4123254, 2.1369205
1565633691026, 7.827156, 7.4772515, -1.7627344, 1.4992822, 4.804883, -0.9438243, -4.197142, 2.1401162
1565633691027, 9.003814, 8.722662, -1.9375709, 1.1088941, 4.5646267, -0.90654004, -3.9297607, 2.1379857
1565633691037, 9.516551, 8.907078, -1.6741188, 2.9027638, 4.2559557, -0.8404937, -3.5718317, 2.1560953
1565633691037, 9.291269, 8.938213, -1.8585353, 1.7268091, 4.0055037, -0.78083885, -3.2586439, 2.194445
1565633691046, 9.627104, 8.911868, -1.8441651, 3.1398706, 3.7630768, -0.74675035, -2.9134984, 2.2615564
1565633691047, 9.314776, 8.897498, -2.0094216, 1.8872755, 3.636861, -0.8064052, -2.6802053, 2.3222766
1565633691056, 9.7662325, 9.24717, -2.2273684, 2.215393, 3.562889, -0.8841695, -2.4916537, 2.3883228
1565633691057, 9.831885, 9.299861, -2.6033864, 1.8441651, 3.5425735, -1.0663297, -2.340386, 2.4362597
1565633691067, 9.827261, 9.302257, -3.04886, 0.8646021, 3.5936227, -1.2761868, -2.2306638, 2.5118935
1565633691068, 9.939289, 9.16574, -3.3147073, 1.947151, 3.6487675, -1.4732608, -2.1475732, 2.5555694
1565633691077, 10.16556, 9.422008, -3.642825, 1.1376343, 3.7325323, -1.655421, -2.1294637, 2.5800705
1565633691077, 11.055807, 9.750125, -3.4775686, 3.8823268, 3.7797496, -1.73212, -2.146508, 2.5843315
1565633691087, 11.316434, 9.934542, -3.3937428, 4.2248144, 3.8585591, -1.7534252, -2.2817965, 2.5704832
1565633691087, 12.344282, 9.908196, -3.178191, 6.6413894, 3.9039152, -1.6362462, -2.441586, 2.569418
1565633691097, 12.772292, 9.821976, -3.2236965, 7.5012016, 3.9712646, -1.4924355, -2.6450517, 2.5587652
1565633691097, 13.498075, 10.186019, -3.3865578, 8.183782, 3.9993894, -1.2783173, -2.8346686, 2.5150893
1565633691107, 14.587734, 10.550061, -3.391348, 9.486672, 4.013424, -1.0258497, -3.00085, 2.4596956
1565633691108, 14.393514, 11.093731, -3.788921, 8.351434, 4.007459, -0.77444726, -3.137204, 2.3702135
1565633691118, 15.242928, 11.900852, -4.1074586, 8.59333, 3.9529896, -0.5294364, -3.2128377, 2.2413163
1565633691118, 15.937927, 12.78222, -4.5744877, 8.349038, 3.8794606, -0.28016454, -3.2671661, 2.0730047
1565633691128, 16.0286, 13.155843, -4.6678934, 7.8772197, 3.809837, -0.0628506, -3.3129725, 1.8801918
1565633691128, 15.6404505, 13.074412, -4.550537, 7.278465, 3.7542152, 0.14274544, -3.3332124, 1.7214674
1565633691138, 14.478972, 12.214601, -4.2799, 6.4905033, 3.7677038, 0.33662358, -3.3939326, 1.6010925
1565633691138, 13.018619, 11.0123005, -3.9374123, 5.719307, 3.8230479, 0.4910869, -3.4653053, 1.5382419
1565633691147, 11.451898, 9.800421, -3.5637891, 4.7325587, 3.9179795, 0.62104917, -3.5494611, 1.5382419
1565633691148, 10.021155, 8.617281, -3.288362, 3.9182522, 4.083701, 0.70627034, -3.6911414, 1.5978967
1565633691158, 8.781453, 7.695198, -3.0153298, 2.9674294, 4.2501216, 0.72011876, -3.8328216, 1.6895094
1565633691159, 7.526786, 6.7779055, -2.787803, 1.7148341, 4.3842864, 0.7105314, -3.9201732, 1.8301244
1565633691168, 6.6898375, 6.09772, -2.703977, 0.51013917, 4.49033, 0.6466155, -3.9585228, 2.018676
1565633691168, 6.156405, 5.4989653, -2.562671, -1.0466236, 4.565584, 0.47723848, -3.9542618, 2.231729
1565633691176, 6.3909607, 5.1828227, -2.6345215, -2.6536818, 4.633064, 0.24714136, -3.8988678, 2.4905882
1565633691176, 7.105631, 4.984036, -2.912344, -4.143384, 4.7299256, -0.07137272, -3.8125815, 2.7984498
1565633691186, 7.775513, 4.87626, -3.180586, -5.1540823, 4.8758025, -0.45060685, -3.7390783, 3.0967238
1565633691187, 8.823683, 5.5372853, -3.7218604, -5.774392, 5.033954, -0.8511463, -3.6240296, 3.3886063
1565633691196, 9.9719925, 6.967112, -4.399651, -5.616321, 5.1557937, -1.2335763, -3.4546525, 3.6229644
1565633691197, 11.291227, 8.890313, -4.864285, -4.9792457, 5.2013226, -1.5680692, -3.2096417, 3.7806234
1565633691206, 12.6300955, 10.825489, -5.233118, -3.8655617, 5.189168, -1.8429075, -2.9358687, 3.8615837
1565633691207, 13.583581, 12.446917, -5.1540823, -1.7387843, 5.0863066, -2.0048277, -2.6280074, 3.8658447
1565633691216, 15.11771, 13.9941, -5.4462748, -1.7459693, 4.912248, -2.0889835, -2.3446472, 3.7774277
1565633691217, 16.577778, 15.464642, -5.719307, 1.719624, 4.6389236, -2.0453076, -2.0762005, 3.609116
1565633691226, 17.919777, 16.616646, -6.0330544, 2.9338992, 4.35256, -1.9419771, -1.9323897, 3.3822145
1565633691226, 19.308884, 17.445324, -6.550379, 5.0582814, 4.002533, -1.7225326, -1.8663434, 3.093528
1565633691236, 20.245485, 17.713566, -6.71324, 7.1443434, 3.6680143, -1.4647386, -1.8791265, 2.7888622
1565633691237, 20.37158, 17.71596, -6.9000516, 7.316785, 3.3673544, -1.1110709, -1.9792614, 2.4873924
1565633691247, 20.674448, 17.0238, -6.706055, 9.625584, 3.1316457, -0.7094661, -2.0815268, 2.2295985
1565633691247, 19.02916, 15.756834, -6.5048733, 8.456815, 3.0443978, -0.30679616, -2.25623, 2.0208068
1565633691257, 18.031788, 14.053975, -5.886958, 9.642349, 3.0902355, 0.084155895, -2.4319987, 1.9046929
1565633691259, 15.672341, 12.367882, -5.47741, 7.9155397, 3.2742608, 0.41225734, -2.6674223, 1.8535602
1565633691267, 14.154153, 10.9069195, -5.1756372, 7.3886356, 3.4968345, 0.680704, -2.8900626, 1.8471686
1565633691268, 12.600409, 9.793235, -5.113367, 6.0593996, 3.7360256, 0.8788432, -3.1084416, 1.8769959
1565633691277, 11.214846, 9.072334, -5.158872, 4.1050634, 3.956322, 1.0343717, -3.2980587, 1.9249328
1565633691279, 10.393869, 8.380174, -4.897815, 3.7170706, 4.1358814, 1.1270498, -3.4386737, 2.0026972
1565633691288, 9.25117, 7.7526784, -4.9217653, 1.1208692, 4.318919, 1.1675298, -3.577158, 2.1198764
1565633691288, 8.704402, 7.2736745, -4.5864625, 1.3507911, 4.4482102, 1.1952267, -3.6464002, 2.2498386
1565633691297, 8.315186, 6.782696, -4.6822634, -1.101709, 4.5800548, 1.1536814, -3.7167077, 2.4149544
1565633691298, 8.234484, 6.6653395, -4.6966333, -1.1496094, 4.647872, 1.0908308, -3.717773, 2.5672874
1565633691308, 8.514832, 6.6557593, -4.727769, -2.4189699, 4.6640043, 0.9779128, -3.6261601, 2.7654266
1565633691308, 8.5114, 6.2941117, -4.8020144, -3.1255007, 4.6104984, 0.87032104, -3.444, 2.9390647
1565633691318, 9.83453, 7.4772515, -5.0822315, -3.8703518, 4.4875226, 0.71159667, -3.193663, 3.0711575
1565633691318, 11.391245, 8.875943, -5.455855, -4.605623, 4.315756, 0.5230448, -2.896454, 3.1563785
1565633691328, 12.771272, 10.183623, -5.934859, -4.9169755, 4.0762916, 0.32384038, -2.5577, 3.1574438
1565633691328, 13.648621, 11.129656, -6.0426345, -5.0894165, 3.8653905, 0.10652645, -2.231729, 3.154248
1565633691338, 14.021587, 11.558365, -6.1312504, -5.0415163, 3.6325495, -0.07882957, -1.897236, 3.0967238
1565633691338, 14.388826, 11.850557, -6.567144, -4.8451247, 3.4214604, -0.23435818, -1.5350461, 3.0487869
1565633691348, 14.3691435, 11.831397, -6.828201, -4.4571314, 3.2787268, -0.36432046, -1.220793, 3.02109
1565633691348, 14.069616, 11.508069, -7.151529, -3.791316, 3.192744, -0.46232477, -0.9576728, 3.0104373
1565633691358, 13.82215, 11.167976, -7.573052, -2.9961696, 3.1549037, -0.5230448, -0.76485986, 3.0157638
1565633691358, 13.334404, 10.609937, -7.805369, -2.076482, 3.1565068, -0.5454154, -0.6402239, 3.0423954
1565633691368, 12.985497, 10.174044, -7.9802055, -1.1951149, 3.169572, -0.51771855, -0.5539375, 3.077549
1565633691368, 12.741583, 9.860296, -8.061636, -0.364043, 3.187648, -0.45167214, -0.5305017, 3.110572
1565633691379, 12.771176, 9.7812605, -8.171807, 0.80712163, 3.1997828, -0.33129725, -0.5539375, 3.134008
1565633691379, 13.067347, 9.860296, -8.416099, 1.6429834, 3.194315, -0.15446335, -0.6146576, 3.1308122
1565633691389, 13.325803, 9.939331, -8.590936, 2.2321582, 3.1963546, 0.049002163, -0.70627034, 3.1169639
1565633691389, 13.498419, 9.948912, -8.744217, 2.6009912, 3.1998212, 0.24074976, -0.8266452, 3.08181
1565633691399, 13.496033, 9.984837, -8.741821, 2.454895, 3.2287076, 0.41545314, -0.9715212, 3.0509174
1565633691400, 13.194292, 9.783655, -8.5430355, 2.320774, 3.2831821, 0.5571333, -1.1387677, 3.0285468
1565633691408, 12.864435, 9.620794, -8.377779, 1.6573536, 3.3521452, 0.6870956, -1.3070794, 3.009372
1565633691409, 12.780488, 9.692644, -8.281978, 0.89573735, 3.3932753, 0.7669904, -1.4466292, 2.9720879
1565633691420, 13.132607, 10.106983, -8.384964, -0.081430666, 3.412912, 0.8032094, -1.5659387, 2.924151
1565633691421, 13.579576, 10.41115, -8.667576, -0.9412427, 3.3832211, 0.79894835, -1.6937705, 2.8176246
1565633691429, 14.163949, 11.050621, -8.696317, -1.695674, 3.3462903, 0.75633776, -1.7726, 2.735599
1565633691429, 14.473152, 11.376344, -8.657996, -2.2561085, 3.2573168, 0.7073356, -1.7960359, 2.6237464
1565633691439, 14.768959, 11.6876955, -8.619676, -2.687212, 3.1368544, 0.6412892, -1.7811222, 2.501241
1565633691439, 14.994495, 11.910433, -8.528665, -3.1997461, 3.0027978, 0.57417756, -1.7182716, 2.3947146
1565633691450, 15.159753, 12.149935, -8.4376545, -3.3171022, 2.8255854, 0.5006743, -1.603223, 2.2722092
1565633691450, 15.221561, 12.221786, -8.432864, -3.3482375, 2.6437745, 0.44528055, -1.4668691, 2.1539648
1565633691459, 15.14559, 12.221786, -8.255632, -3.4440382, 2.4255776, 0.38456047, -1.2985574, 2.0122845
1565633691460, 15.350317, 12.363091, -8.4304695, -3.422483, 2.2133942, 0.32384038, -1.1185277, 1.8823223
1565633691470, 15.226083, 12.288846, -8.399334, -3.2045362, 1.9795772, 0.28229508, -0.92784536, 1.7257284
1565633691471, 14.8524685, 11.982284, -8.296348, -2.8620484, 1.7640357, 0.26205507, -0.7190535, 1.5893745
1565633691479, 14.394889, 11.522439, -8.238868, -2.562671, 1.5697235, 0.257794, -0.53795856, 1.4519554
1565633691480, 13.931906, 11.076965, -8.157437, -2.203418, 1.4178005, 0.27377295, -0.38456047, 1.3369069
1565633691489, 13.271714, 10.427916, -8.023315, -1.7387843, 1.3011297, 0.32170987, -0.26525086, 1.2325109
1565633691490, 12.702623, 9.704619, -8.064031, -1.465752, 1.2187846, 0.37284255, -0.1736381, 1.1472899
1565633691500, 12.124382, 9.053174, -8.011341, -0.9268726, 1.2005814, 0.4346279, -0.13422333, 1.1110709
1565633691500, 11.620085, 8.344249, -8.032896, -0.93405765, 1.1801467, 0.5123922, -0.094808534, 1.0588728
1565633691510, 11.265573, 7.668853, -8.181387, -1.0801538, 1.1920462, 0.59228706, -0.068176925, 1.0322412
1565633691510, 11.064128, 7.424561, -8.064031, -1.5040723, 1.1946237, 0.63383234, -0.035153728, 1.0120013
1565633691520, 10.874982, 7.173084, -7.95865, -1.8633252, 1.1727381, 0.6466155, -0.029827405, 0.9779128
1565633691521, 10.744328, 7.0102224, -7.8868, -2.0237916, 1.1533862, 0.6466155, -0.034088463, 0.95447695
1565633691530, 10.633812, 6.792276, -7.829319, -2.3758595, 1.1412518, 0.6625945, -0.023435818, 0.9289106
1565633691531, 10.632547, 6.710845, -7.838899, -2.562671, 1.1161867, 0.63915867, 0.0031957934, 0.9150622
1565633691540, 10.048508, 6.085745, -7.4844365, -2.8141482, 1.0907986, 0.6146576, 0.060720075, 0.8990832
1565633691541, 10.31014, 6.4066777, -7.5131764, -2.9674294, 1.0546775, 0.58269966, 0.0777643, 0.87564737
1565633691550, 10.662355, 6.70366, -7.695198, -3.0871804, 0.98194855, 0.5251754, 0.09267801, 0.8245147
1565633691551, 10.962694, 6.6749196, -8.049661, -3.290757, 0.89892477, 0.45167214, 0.111852765, 0.76912093
1565633691560, 10.988647, 6.600674, -8.131092, -3.3266823, 0.83892876, 0.39521313, 0.15126756, 0.72437984
1565633691561, 10.811081, 6.337222, -8.047266, -3.4584084, 0.7867532, 0.32490566, 0.16298546, 0.69774824
1565633691571, 10.597398, 6.095325, -8.061636, -3.187771, 0.72923636, 0.27696875, 0.165116, 0.6540724
1565633691572, 10.608834, 6.05461, -8.248447, -2.802173, 0.6908049, 0.23009712, 0.16298546, 0.6306366
1565633691582, 10.269144, 5.6187162, -8.258028, -2.3854396, 0.6839769, 0.23435818, 0.16085494, 0.6221144
1565633691583, 10.10125, 5.47262, -8.207732, -2.1722827, 0.6682028, 0.22370553, 0.17044231, 0.6061355
1565633691592, 10.008115, 5.3241286, -8.224498, -2.0429518, 0.6665441, 0.24820662, 0.15978967, 0.59761333
1565633691592, 10.173874, 5.249883, -8.504715, -1.9016455, 0.65529615, 0.27057716, 0.14274544, 0.5795039
1565633691601, 10.326314, 5.233118, -8.648416, -2.1100123, 0.6463531, 0.27377295, 0.13422333, 0.5699165
1565633691602, 10.151668, 4.9409256, -8.624466, -2.064507, 0.6424181, 0.2972088, 0.08948222, 0.56245965
1565633691612, 10.424074, 5.0367265, -8.835227, -2.2872438, 0.6250879, 0.29614353, 0.029827405, 0.5496765
1565633691612, 10.7087755, 5.158872, -9.074729, -2.3902297, 0.60335267, 0.28016454, -0.026631612, 0.5336975
1565633691621, 10.8984, 5.017566, -9.280701, -2.7327175, 0.58157784, 0.24820662, -0.07989483, 0.51984906
1565633691631, 10.970615, 4.88584, -9.297466, -3.168611, 0.58384556, 0.22264028, -0.13315806, 0.5230448
1565633691632, 10.981742, 5.094207, -9.251961, -3.0081446, 0.58591187, 0.18002969, -0.19600865, 0.5219796
1565633691633, 11.372107, 5.4534597, -9.479487, -3.1183155, 0.5668939, 0.15126756, -0.22583607, 0.49747851
1565633691642, 11.734846, 5.7312818, -9.74294, -3.151846, 0.54722774, 0.11611383, -0.25353295, 0.4708469
1565633691643, 11.859186, 5.846243, -9.877061, -2.9841945, 0.5196984, 0.08628642, -0.24607609, 0.4495416
1565633691652, 11.881656, 5.855823, -9.867481, -3.0847852, 0.5255749, 0.0628506, -0.26312032, 0.45060685
1565633691653, 11.988273, 5.863008, -10.042317, -2.914739, 0.5174313, 0.043675844, -0.25246766, 0.4495416
1565633691662, 12.138155, 6.0570045, -10.159674, -2.7255323, 0.49959198, 0.03834952, -0.23755397, 0.43782368
1565633691663, 12.318631, 6.217471, -10.296189, -2.6608667, 0.49570522, 0.034088463, -0.22583607, 0.43995422
1565633691672, 12.354923, 6.5096636, -10.229129, -2.3734643, 0.4762447, 0.039414786, -0.221575, 0.41971418
1565633691672, 12.528734, 6.7755103, -10.265054, -2.3854396, 0.4570245, 0.0628506, -0.22264028, 0.39414784
1565633691683, 12.608161, 6.9240017, -10.28661, -2.2824538, 0.42533544, 0.07456851, -0.21198763, 0.36112466
1565633691684, 12.841159, 7.3072047, -10.33451, -2.1674929, 0.3841619, 0.08628642, -0.20985709, 0.30999196
1565633691692, 13.040839, 7.5874224, -10.40157, -2.074087, 0.34106433, 0.10865697, -0.21092236, 0.24501082
1565633691693, 13.10391, 7.932305, -10.255474, -1.9016455, 0.28796837, 0.12996227, -0.19600865, 0.16618125
1565633691702, 13.012717, 8.064031, -10.068663, -1.710044, 0.26618186, 0.17044231, -0.18535602, 0.08628642
1565633691703, 12.987653, 8.241262, -9.915381, -1.5639478, 0.27050796, 0.22050974, -0.15659387, 0.0053263223
1565633691713, 12.71862, 8.248447, -9.599238, -1.2573853, 0.33488125, 0.29507825, -0.14487597, -0.06391586
1565633691714, 12.30988, 8.006551, -9.299861, -0.9699829, 0.414585, 0.36218992, -0.13102753, -0.15339808
1565633691723, 12.176372, 7.879615, -9.206455, -1.1903248, 0.5060354, 0.44101948, -0.098004326, -0.22796659
1565633691723, 11.973602, 7.9155397, -8.8879175, -1.3100758, 0.5888167, 0.49854377, -0.10226539, -0.29614353
1565633691734, 11.71699, 7.774234, -8.6627865, -1.343606, 0.67134655, 0.5454154, -0.1257012, -0.37071204
1565633691735, 11.474355, 7.510782, -8.547825, -1.477727, 0.74015725, 0.5795039, -0.16085494, -0.4314321
1565633691743, 11.091951, 7.2593045, -8.224498, -1.6405884, 0.7884397, 0.59228706, -0.18109496, -0.4878911
1565633691744, 10.959641, 7.2497244, -7.9921803, -1.9184108, 0.85419065, 0.6263755, -0.18748654, -0.5496765
1565633691753, 10.6483345, 7.0150127, -7.7598634, -1.9902613, 0.89885914, 0.62744075, -0.21944448, -0.60507023
1565633691754, 10.421406, 6.8928666, -7.5179667, -2.1387525, 0.9437335, 0.62531024, -0.23435818, -0.6668556
1565633691763, 10.269564, 6.706055, -7.417376, -2.339934, 0.98082167, 0.60720074, -0.27057716, -0.721184
1565633691764, 10.088213, 6.449788, -7.3479204, -2.4860303, 1.0150075, 0.5816344, -0.314253, -0.7701862
1565633691773, 9.913843, 6.2941117, -7.247329, -2.4788454, 1.0370829, 0.5475459, -0.35899413, -0.8042747
1565633691774, 9.79492, 6.080955, -7.2401443, -2.5578809, 1.0645686, 0.51452273, -0.40266997, -0.8404937
1565633691784, 9.797873, 5.9875493, -7.3575, -2.4525, 1.0997219, 0.47191215, -0.45060685, -0.8852348
1565633691785, 9.721238, 5.949229, -7.3096, -2.3830445, 1.1313208, 0.43036684, -0.5091964, -0.9139969
1565633691796, 9.661547, 5.858218, -7.3622904, -2.196233, 1.1944426, 0.40586576, -0.5603291, -0.9736517
1565633691797, 9.724019, 5.8989334, -7.434141, -2.1195924, 1.2494571, 0.38562572, -0.6018744, -1.0247844
1565633691805, 9.721428, 6.013894, -7.4030056, -1.8800904, 1.3017366, 0.36112466, -0.628506, -1.0812434
1565633691806, 9.702917, 5.9037232, -7.462881, -1.8968556, 1.3592249, 0.36218992, -0.65513766, -1.1345067
1565633691815, 9.811336, 5.944439, -7.654483, -1.5280225, 1.432151, 0.37390783, -0.6892261, -1.1984226
1565633691816, 9.820982, 5.855823, -7.776629, -1.2981006, 1.4889753, 0.38242993, -0.7137272, -1.2495552
1565633691828, 9.659515, 5.613926, -7.790999, -1.0442286, 1.5333449, 0.38562572, -0.7520767, -1.2793826
1565633691829, 9.482366, 5.3408937, -7.783814, -0.89573735, 1.5511585, 0.38775626, -0.76912093, -1.2900352
1565633691835, 9.469451, 5.0031962, -7.9802055, -0.977168, 1.5646433, 0.39734364, -0.7946873, -1.2879047
1565633691836, 9.440679, 4.8211746, -8.068821, -0.8813672, 1.5418925, 0.40266997, -0.80533993, -1.2516857
1565633691846, 9.408382, 4.4355764, -8.262817, -0.7544312, 1.51201, 0.41438788, -0.8266452, -1.196292
1565633691848, 9.288455, 3.9422023, -8.375383, -0.7664063, 1.4726706, 0.4282363, -0.85966843, -1.1163971
1565633691858, 9.154619, 3.4799635, -8.432864, -0.76401126, 1.4200411, 0.44208476, -0.902279, -1.0034791
1565633691859, 9.2534275, 3.271597, -8.595725, -1.0178833, 1.3819441, 0.43356264, -0.958738, -0.89588743
1565633691866, 9.388235, 3.178191, -8.732242, -1.336421, 1.3341165, 0.39414784, -0.9896307, -0.8032094
1565633691868, 9.515727, 3.3626075, -8.729847, -1.7411792, 1.276137, 0.34301516, -1.0141318, -0.6945524
1565633691877, 9.593559, 3.4871485, -8.693921, -2.071692, 1.192336, 0.2908172, -0.9981528, -0.5837649
1565633691879, 9.826171, 4.021238, -8.749006, -1.9591261, 1.1340364, 0.22583607, -0.98110855, -0.5219796
1565633691889, 10.711493, 4.960086, -9.21364, -2.2896388, 1.0928138, 0.12783173, -0.9651296, -0.49641323
1565633691890, 11.635165, 5.9037232, -9.651929, -2.7135572, 1.0686477, 0.008522116, -0.93423694, -0.5187838
1565633691897, 11.797065, 6.11209, -9.711804, -2.7375073, 1.0693833, -0.1107875, -0.91186637, -0.5475459
1565633691898, 12.140485, 6.706055, -9.687855, -2.926714, 1.069144, -0.23755397, -0.8607337, -0.588026
1565633691908, 11.865969, 6.4833183, -9.558523, -2.7207422, 1.0480974, -0.3323625, -0.7861652, -0.608266
1565633691909, 11.602615, 6.3899126, -9.383687, -2.3950195, 1.0151931, -0.39734364, -0.6892261, -0.6306366
1565633691916, 11.478198, 6.478528, -9.254355, -2.0333717, 0.9881326, -0.44847634, -0.5858955, -0.65726817
1565633691917, 11.4046135, 6.375542, -9.266331, -1.8848804, 0.964678, -0.4878911, -0.47723848, -0.68176925
1565633691927, 11.322383, 6.3156667, -9.256751, -1.6190332, 0.94100183, -0.515588, -0.36645097, -0.69668293
1565633691928, 11.337078, 6.210286, -9.388477, -1.3483961, 0.94149435, -0.53795856, -0.28549087, -0.71798825
1565633691938, 11.239631, 5.9252787, -9.460327, -1.3124708, 0.9210152, -0.5581986, -0.19068234, -0.7073356
1565633691939, 11.002443, 5.616321, -9.407638, -1.0035132, 0.900035, -0.55606806, -0.111852765, -0.6988135
1565633691946, 10.743584, 5.3169436, -9.307046, -0.73048097, 0.86556655, -0.5411543, -0.014913702, -0.67537767
1565633691948, 10.51512, 5.1636624, -9.148975, -0.44786867, 0.8354458, -0.5070659, 0.0777643, -0.6593987
1565633691957, 10.195372, 4.84752, -8.959768, -0.41194338, 0.79318935, -0.4644553, 0.17044231, -0.6199839
1565633691960, 10.078863, 4.8355446, -8.840017, -0.23471193, 0.7855926, -0.41438788, 0.23329292, -0.62531024
1565633691966, 9.93973, 4.7972245, -8.698711, -0.3424878, 0.76524997, -0.35792887, 0.28229508, -0.6146576
1565633691967, 9.870719, 4.768484, -8.636441, -0.32332766, 0.749841, -0.3110572, 0.29614353, -0.6146576
1565633691977, 9.716794, 4.5553274, -8.57417, -0.38559815, 0.72971237, -0.26844665, 0.26844665, -0.62317973
1565633691979, 9.418029, 4.4738965, -8.277188, -0.4143384, 0.7192018, -0.22370553, 0.221575, -0.6466155
1565633691986, 9.350217, 4.478687, -8.200547, -0.34488282, 0.6930427, -0.17789917, 0.14913702, -0.6530071
1565633691987, 9.062543, 4.3301954, -7.9466753, -0.47900394, 0.6948791, -0.13635385, 0.07243799, -0.6775082
1565633691997, 9.222019, 4.5002418, -8.004155, -0.852627, 0.72832, -0.09374327, -0.004261058, -0.7222493
1565633691998, 9.112567, 4.485872, -7.8580594, -1.0801538, 0.7535487, -0.06711166, -0.10226539, -0.7435546
1565633692007, 9.1202, 4.4403663, -7.8652444, -1.2645704, 0.8045547, -0.053263225, -0.2034655, -0.7765778
1565633692008, 8.977992, 4.2128396, -7.7550735, -1.6477735, 0.84241873, -0.04261058, -0.294013, -0.7882957
1565633692017, 9.065607, 4.0763235, -7.8604546, -1.9447559, 0.8648668, -0.05752428, -0.36964676, -0.7797736
1565633692018, 7.743982, 2.0429518, -7.1275783, -2.2345533, 0.8539787, -0.018109497, -0.3920173, -0.7584683
1565633692029, 8.544176, 3.276387, -7.5970025, -2.1339624, 0.8617864, -0.01917476, -0.44421527, -0.73822826
1565633692030, 9.50788, 4.3541455, -8.095166, -2.430945, 0.92714363, -0.06711166, -0.5305017, -0.757403
1565633692037, 10.207825, 4.9433208, -8.459209, -2.8644435, 1.028521, -0.12250541, -0.6306366, -0.8032094
1565633692038, 10.493669, 5.1900077, -8.54064, -3.1997461, 1.142191, -0.19281286, -0.72437984, -0.86179894
1565633692047, 10.332559, 4.9529004, -8.471185, -3.2356715, 1.2104071, -0.25992453, -0.7882957, -0.8809737
1565633692049, 9.581215, 4.0835085, -8.128696, -3.0081446, 1.2186439, -0.30466563, -0.813862, -0.8543421
1565633692059, 9.249752, 3.8559816, -7.9897857, -2.6177564, 1.2010903, -0.3355583, -0.8213189, -0.809601
1565633692060, 9.245009, 3.9589674, -8.052056, -2.2273684, 1.1718558, -0.34408042, -0.8032094, -0.78083885
1565633692067, 9.245555, 3.8583767, -8.138277, -2.088457, 1.1143675, -0.3323625, -0.74461985, -0.7595336
1565633692069, 9.033969, 3.7146754, -8.037686, -1.7914747, 1.0376666, -0.3089267, -0.69135666, -0.7094661
1565633692081, 8.901965, 3.6859353, -7.9347, -1.6429834, 0.9282495, -0.27483824, -0.5997439, -0.6530071
1565633692082, 8.993733, 3.8176613, -7.9802055, -1.6214283, 0.84710234, -0.24501082, -0.5251754, -0.6178534
1565633692087, 9.05386, 3.9445972, -7.9849954, -1.6286134, 0.76761967, -0.2247708, -0.43782368, -0.58909124
1565633692090, 9.137247, 4.026028, -8.011341, -1.7603394, 0.689124, -0.19707392, -0.34940675, -0.5603291
1565633692098, 9.109061, 4.023633, -7.95865, -1.8561403, 0.6116232, -0.1917476, -0.25246766, -0.5230448
1565633692100, 9.044569, 4.006868, -7.8556643, -2.0094216, 0.5579597, -0.19387813, -0.17150758, -0.49428272
1565633692113, 8.983034, 4.016448, -7.7550735, -2.1028273, 0.5123479, -0.19281286, -0.098004326, -0.4644553
1565633692114, 8.953632, 3.899092, -7.7550735, -2.196233, 0.47229195, -0.20559604, -0.053263225, -0.42184472
1565633692119, 8.926958, 3.8272414, -7.7143583, -2.3519094, 0.44859397, -0.22370553, -0.0031957934, -0.3888215
1565633692121, 8.921719, 3.891907, -7.673643, -2.3590944, 0.4326115, -0.2396845, 0.02876214, -0.35899413
1565633692137, 9.131821, 4.0523734, -7.7694435, -2.5698562, 0.42796728, -0.26205507, 0.05752428, -0.3334278
1565633692138, 9.165233, 4.174519, -7.7574687, -2.5291407, 0.43067, -0.29294774, 0.06498113, -0.3089267
1565633692139, 9.243074, 4.0859036, -7.829319, -2.7279274, 0.429983, -0.3110572, 0.07350325, -0.2876214
1565633692140, 9.4674635, 4.277505, -7.9634404, -2.8141482, 0.46191347, -0.3387541, 0.084155895, -0.30253512
1565633692148, 9.702198, 4.3565407, -8.1071415, -3.0704153, 0.47479376, -0.3685815, 0.1107875, -0.27803403
1565633692149, 9.941688, 4.550537, -8.181387, -3.3458424, 0.5063257, -0.4165184, 0.101200126, -0.2695119
1565633692158, 9.937538, 4.524192, -8.174202, -3.3865578, 0.54005545, -0.46019423, 0.08841695, -0.26844665
1565633692159, 10.050287, 4.591253, -8.310719, -3.295547, 0.586893, -0.5230448, 0.0777643, -0.2545982
1565633692169, 10.322407, 4.737349, -8.454419, -3.5542092, 0.64047647, -0.58483016, 0.0777643, -0.24927188
1565633692170, 10.4194975, 4.7876444, -8.528665, -3.5925295, 0.6959895, -0.64555025, 0.0958738, -0.24181503
1565633692178, 10.235057, 4.6822634, -8.4448395, -3.3937428, 0.71066236, -0.6668556, 0.1587244, -0.18748654
1565633692179, 9.760976, 4.4643164, -8.236472, -2.7399025, 0.74625176, -0.6945524, 0.21731395, -0.165116
1565633692189, 10.537802, 5.1708474, -8.753797, -2.7710378, 0.79316, -0.7339672, 0.23755397, -0.18429075
1565633692190, 11.310103, 5.7480474, -9.278306, -2.9650342, 0.8623255, -0.79894835, 0.24927188, -0.20772657
1565633692198, 11.065964, 5.1804276, -9.386082, -2.7422974, 0.91048276, -0.83516735, 0.3057309, -0.1949434
1565633692199, 10.295644, 4.3230104, -9.091495, -2.1579127, 0.9438808, -0.8479505, 0.38029942, -0.165116
1565633692210, 9.9717655, 4.112249, -8.892708, -1.8561403, 0.9533569, -0.82877576, 0.46019423, -0.101200126
1565633692211, 9.930377, 3.891907, -9.0148535, -1.4825171, 0.9734273, -0.8000136, 0.55074173, -0.06498113
1565633692218, 9.992473, 3.8727467, -9.129815, -1.223855, 0.98452216, -0.7584683, 0.62744075, -0.018109497
1565633692219, 10.04931, 3.8080812, -9.242381, -1.0322535, 0.99480534, -0.72437984, 0.680704, 0.039414786
1565633692229, 9.913046, 3.6380348, -9.182506, -0.84544194, 0.98318887, -0.680704, 0.7030745, 0.094808534
1565633692230, 9.788324, 3.4943337, -9.11784, -0.6825806, 0.9609217, -0.61678815, 0.7222493, 0.14594123
1565633692239, 9.888231, 3.527864, -9.21364, -0.66342044, 0.93362033, -0.5635249, 0.716923, 0.20026971
1565633692240, 9.863933, 3.6907253, -9.129815, -0.5676197, 0.8794247, -0.4878911, 0.69348717, 0.23329292
1565633692249, 9.979744, 3.8440065, -9.196876, -0.48618898, 0.8097769, -0.41438788, 0.6466155, 0.25672874
1565633692250, 10.0073, 3.9206471, -9.192085, -0.5292993, 0.73837274, -0.3472762, 0.59228706, 0.27164245
1565633692259, 10.3096695, 4.267925, -9.3381815, -0.93405765, 0.6612032, -0.28336033, 0.5336975, 0.26844665
1565633692261, 10.676923, 4.5720925, -9.5633135, -1.2789404, 0.6003831, -0.24501082, 0.4825648, 0.25992453
1565633692270, 11.085757, 4.854705, -9.7812605, -1.9112257, 0.5315254, -0.22690132, 0.41225734, 0.24714136
1565633692271, 11.373428, 4.9361353, -9.972861, -2.3519094, 0.50640863, -0.23435818, 0.36751625, 0.257794
1565633692279, 11.443655, 4.4691067, -10.150093, -2.8213332, 0.56852996, -0.23009712, 0.37603834, 0.35899413
1565633692280, 10.971777, 3.7985013, -9.922566, -2.7375073, 0.6217176, -0.23542345, 0.37710363, 0.4346279
1565633692291, 12.026377, 4.758904, -10.475816, -3.4991236, 0.6632535, -0.29614353, 0.37603834, 0.45912898
1565633692293, 12.91041, 5.726492, -10.863809, -3.9829175, 0.6976775, -0.36964676, 0.3834952, 0.45060685
1565633692299, 13.243063, 6.2701616, -10.902129, -4.148174, 0.73558575, -0.44208476, 0.40053943, 0.43036684
1565633692300, 13.24512, 6.2893214, -10.91171, -4.1002736, 0.7900823, -0.5028048, 0.43675843, 0.4250405
1565633692310, 12.5720825, 5.3145485, -10.595567, -4.1888895, 0.89382607, -0.5603291, 0.5273059, 0.45486793
1565633692313, 12.3637295, 5.029541, -10.571617, -3.9757326, 0.98096746, -0.61891866, 0.5858955, 0.4857606
1565633692321, 12.536345, 5.0750465, -10.847044, -3.7074904, 1.0410708, -0.66365975, 0.60720074, 0.52411014
1565633692322, 12.514377, 4.993616, -10.92608, -3.5063088, 1.1029748, -0.68816084, 0.6380934, 0.5795039
1565633692329, 12.377287, 4.567302, -11.100916, -3.0177248, 1.1373937, -0.700944, 0.64341974, 0.62317973
1565633692331, 12.248767, 4.4259963, -11.139236, -2.5219557, 1.159273, -0.6785734, 0.6402239, 0.68816084
1565633692340, 12.138519, 4.2176294, -11.194322, -2.059717, 1.1520671, -0.62531024, 0.60080916, 0.7584683
1565633692342, 12.082262, 4.1793094, -11.232642, -1.5304176, 1.1240822, -0.5635249, 0.5390238, 0.809601
1565633692349, 12.029741, 4.2272096, -11.201507, -1.1711646, 1.0993637, -0.48682585, 0.46871635, 0.8671253
1565633692350, 11.903564, 4.3134303, -11.067386, -0.7759864, 1.0663445, -0.39734364, 0.37923414, 0.9139969
1565633692360, 11.893979, 4.5768824, -10.9644, -0.5484595, 1.0198727, -0.294013, 0.28442562, 0.93423694
1565633692362, 11.777496, 4.7804594, -10.753638, -0.46463382, 0.9871392, -0.18748654, 0.18535602, 0.95128113
1565633692370, 11.656358, 5.031936, -10.506951, -0.39278322, 0.9547557, -0.08628642, 0.07243799, 0.94808537
1565633692372, 11.564508, 5.223538, -10.303374, -0.5412744, 0.94160277, -0.004261058, -0.04261058, 0.9406285
1565633692380, 11.624573, 5.4678297, -10.229129, -0.77359134, 0.93362695, 0.07456851, -0.15765914, 0.9171927
1565633692381, 11.439277, 5.5396805, -9.958491, -0.9987232, 0.9552851, 0.13209279, -0.28122982, 0.9033443
1565633692391, 11.419021, 5.8198977, -9.73815, -1.3004956, 0.98606324, 0.18002969, -0.38562572, 0.88949585
1565633692392, 11.252132, 5.8749833, -9.462723, -1.5974782, 1.0086098, 0.21731395, -0.4825648, 0.8586032
1565633692402, 11.124354, 6.0833497, -9.115445, -1.9112257, 1.0209886, 0.24927188, -0.55606806, 0.81918836
1565633692403, 10.893763, 6.11209, -8.772957, -2.0860622, 1.030082, 0.2759035, -0.60293967, 0.7882957
1565633692410, 10.799088, 6.344407, -8.418494, -2.3447242, 1.0107294, 0.29294774, -0.6263755, 0.737163
1565633692411, 10.53962, 6.382727, -7.9921803, -2.543511, 0.9706845, 0.29188246, -0.60720074, 0.6988135
1565633692422, 10.340441, 6.344407, -7.7071733, -2.6967921, 0.9054654, 0.2876214, -0.5837649, 0.6295713
1565633692423, 10.284822, 6.456973, -7.5059915, -2.7830129, 0.8397271, 0.2727077, -0.54648066, 0.5763081
1565633692431, 10.162246, 6.2773466, -7.3742657, -3.0799952, 0.7682071, 0.2609898, -0.5006743, 0.5209143
1565633692432, 9.961955, 6.1959157, -7.1419487, -3.1374757, 0.6777494, 0.22583607, -0.43888897, 0.4644553
1565633692447, 9.992536, 5.9947343, -7.1395535, -3.5973196, 0.5938312, 0.19707392, -0.36112466, 0.4282363
1565633692449, 9.750122, 5.647456, -6.9958525, -3.772156, 0.5418606, 0.14487597, -0.26738137, 0.44847634
1565633692451, 8.922487, 4.28469, -6.8976564, -3.6979103, 0.5096976, 0.0958738, -0.15446335, 0.47617322
1565633692452, 9.583128, 4.6654983, -7.230564, -4.2176294, 0.4773086, 0.018109497, -0.06924219, 0.47191215
1565633692461, 10.206335, 5.391189, -7.558682, -4.239185, 0.4409989, -0.05965481, -0.0127831735, 0.43675843
1565633692462, 10.33909, 5.757627, -7.5059915, -4.1721244, 0.3914626, -0.12357068, 0.060720075, 0.36645097
1565633692471, 10.516102, 5.989944, -7.676038, -3.9733377, 0.37745553, -0.1768339, 0.13315806, 0.3057309
1565633692472, 10.055309, 5.336104, -7.6185575, -3.8200562, 0.43283048, -0.22583607, 0.2247708, 0.29294774
1565633692482, 9.820082, 4.641548, -7.814949, -3.7170706, 0.49424827, -0.2759035, 0.30999196, 0.26844665
1565633692483, 10.197056, 4.897815, -8.147857, -3.6883302, 0.55902845, -0.33449304, 0.36325517, 0.26205507
1565633692492, 10.389079, 4.9505057, -8.4448395, -3.4799635, 0.6020714, -0.3749731, 0.4079963, 0.23542345
1565633692494, 10.088573, 4.634363, -8.392149, -3.1422658, 0.6578308, -0.40373522, 0.46871635, 0.22370553
1565633692502, 9.88625, 4.3086405, -8.416099, -2.8883936, 0.7200116, -0.43249738, 0.53476274, 0.2130529
1565633692504, 9.821431, 4.054768, -8.57896, -2.5339308, 0.7615881, -0.44421527, 0.58269966, 0.20772657
1565633692513, 9.852903, 4.040398, -8.703502, -2.2369483, 0.80345166, -0.45486793, 0.6295713, 0.20559604
1565633692515, 9.766208, 3.8607717, -8.765772, -1.9064356, 0.82393503, -0.45060685, 0.664725, 0.18429075
1565633692524, 9.838878, 3.791316, -8.914263, -1.7220191, 0.85318446, -0.43569317, 0.7137272, 0.16937704
1565633692525, 9.812997, 3.7577858, -8.959768, -1.3771362, 0.8647284, -0.39734364, 0.7488809, 0.17044231
1565633692533, 9.757698, 3.5853443, -9.0004835, -1.1615845, 0.87832135, -0.35792887, 0.7882957, 0.14807177
1565633692535, 9.605911, 3.3817677, -8.938213, -0.97237796, 0.89272463, -0.3110572, 0.8245147, 0.14274544
1565633692545, 9.609345, 3.182981, -9.034014, -0.7711963, 0.89597607, -0.25353295, 0.8479505, 0.13954964
1565633692547, 9.592387, 3.0943654, -9.048384, -0.75203615, 0.89258796, -0.20240025, 0.85753787, 0.14274544
1565633692552, 9.439352, 2.703977, -9.017249, -0.69216067, 0.87891805, -0.16405073, 0.8479505, 0.16298546
1565633692554, 9.391546, 2.565066, -9.005274, -0.72569096, 0.86296743, -0.112918034, 0.83729786, 0.17576863
1565633692564, 9.32321, 2.3758595, -8.981323, -0.7831714, 0.83033997, -0.07350325, 0.8000136, 0.20985709
1565633692565, 9.124372, 2.1459377, -8.828042, -0.84544194, 0.8045462, -0.026631612, 0.7637946, 0.2514024
1565633692574, 9.077729, 1.9974464, -8.801697, -0.97237796, 0.77886933, 0.010652645, 0.7233146, 0.28868666
1565633692575, 8.995131, 1.9567311, -8.703502, -1.1543995, 0.77127284, 0.04580637, 0.6924219, 0.33662358
1565633692584, 8.898874, 1.829795, -8.58854, -1.4418018, 0.75455695, 0.0777643, 0.64768076, 0.37923414
1565633692585, 8.7608185, 1.6645386, -8.440049, -1.6573536, 0.7533062, 0.101200126, 0.6061355, 0.43569317
1565633692593, 8.623437, 1.5328126, -8.284373, -1.839375, 0.74752194, 0.1107875, 0.5581986, 0.48469532
1565633692595, 8.4818535, 1.6190332, -8.090376, -1.9663111, 0.74201614, 0.12250541, 0.49960902, 0.53476274
1565633692603, 8.463018, 1.6836988, -8.037686, -2.0453467, 0.73809063, 0.12144015, 0.44208476, 0.5784386
1565633692605, 8.441301, 1.8776954, -7.917935, -2.2441335, 0.7395061, 0.12996227, 0.4016047, 0.60720074
1565633692614, 8.467013, 2.095642, -7.8987746, -2.215393, 0.7339796, 0.14594123, 0.3536678, 0.6263755
1565633692615, 8.378546, 2.2776637, -7.7574687, -2.198628, 0.74365836, 0.1555286, 0.3089267, 0.6583334
1565633692624, 8.37962, 2.2920337, -7.7550735, -2.196233, 0.73714453, 0.17257284, 0.2514024, 0.6711166
1565633692626, 8.381228, 2.4740553, -7.695198, -2.215393, 0.7326867, 0.18216023, 0.19707392, 0.68176925
1565633692634, 8.322491, 2.5147705, -7.6185575, -2.2129982, 0.7478862, 0.19920446, 0.16831179, 0.700944
1565633692636, 8.33275, 2.5315359, -7.606582, -2.2728736, 0.7611044, 0.21198763, 0.11930962, 0.721184
1565633692643, 8.213502, 2.6153615, -7.446116, -2.2752686, 0.7883835, 0.23435818, 0.094808534, 0.74675035
1565633692645, 8.339197, 2.680027, -7.5179667, -2.4165747, 0.8127661, 0.24501082, 0.06391586, 0.77231675
1565633692655, 8.320346, 2.8213332, -7.4988065, -2.2441335, 0.8269218, 0.25885928, 0.020240024, 0.7850999
1565633692656, 8.249359, 2.804568, -7.4101906, -2.2968237, 0.853564, 0.28655612, -0.036218993, 0.8032094
1565633692664, 8.337949, 2.7830129, -7.5467067, -2.196233, 0.9034831, 0.31318775, -0.07989483, 0.84368944
1565633692665, 8.20286, 2.794988, -7.4101906, -2.1363575, 0.94515795, 0.34514567, -0.13635385, 0.8692558
1565633692674, 8.232124, 2.9171338, -7.4125857, -2.076482, 0.9874065, 0.37710363, -0.18429075, 0.89375687
1565633692675, 8.136724, 3.051255, -7.2736745, -1.9974464, 1.0190885, 0.41864893, -0.23435818, 0.8990832
1565633692684, 8.300294, 3.2356715, -7.3838453, -1.9758912, 1.0757066, 0.45912898, -0.27483824, 0.9331717
1565633692686, 8.368247, 3.3338673, -7.3838453, -2.095642, 1.1173269, 0.49534798, -0.32277513, 0.94808537
1565633692696, 8.382922, 3.5757644, -7.3096, -2.0142114, 1.1411856, 0.535828, -0.36112466, 0.9406285
1565633692699, 8.493489, 3.774551, -7.31918, -2.078877, 1.196293, 0.57417756, -0.4293016, 0.9576728
1565633692706, 8.58057, 4.0427933, -7.2593045, -2.1411476, 1.2262212, 0.59867865, -0.49428272, 0.9491506
1565633692708, 8.781247, 4.253555, -7.3694754, -2.1698878, 1.26817, 0.6348976, -0.567786, 0.9395633
1565633692715, 8.901697, 4.4259963, -7.3694754, -2.311194, 1.2915773, 0.65194184, -0.63702816, 0.9150622
1565633692716, 8.939191, 4.591253, -7.34313, -2.215393, 1.3417884, 0.664725, -0.7286409, 0.90973586
1565633692724, 9.011134, 4.7086086, -7.3096, -2.3662794, 1.3766354, 0.6849651, -0.809601, 0.87777793
1565633692726, 9.157308, 4.912185, -7.34313, -2.4093897, 1.4187522, 0.6956177, -0.8969527, 0.8511463
1565633692734, 9.256295, 4.998406, -7.431746, -2.3375392, 1.4724722, 0.70200926, -1.0056096, 0.8149273
1565633692736, 9.423406, 5.2091675, -7.4892263, -2.3614893, 1.5364466, 0.72011876, -1.107875, 0.7840346
1565633692745, 9.391424, 5.1636624, -7.5035963, -2.2872438, 1.6198477, 0.74248934, -1.2282499, 0.75101143
1565633692746, 9.45852, 5.326524, -7.5299416, -2.095642, 1.7074281, 0.77231675, -1.3411679, 0.721184
1565633692756, 9.34785, 5.2115626, -7.510782, -1.951941, 1.8146886, 0.80533993, -1.4668691, 0.70200926
1565633692758, 9.425715, 5.237908, -7.585027, -1.9687061, 1.9106876, 0.85327685, -1.5691346, 0.6785734
1565633692766, 9.504483, 5.3121533, -7.6401124, -1.9351759, 2.02575, 0.8969527, -1.6895094, 0.6668556
1565633692767, 9.505608, 5.3480787, -7.6401124, -1.839375, 2.1157863, 0.9502159, -1.7779263, 0.6423545
1565633692775, 9.650985, 5.4582496, -7.7167535, -1.949546, 2.1935418, 1.0056096, -1.8514296, 0.6103965
1565633692777, 9.7189245, 5.5372853, -7.7359133, -1.9878663, 2.2595923, 1.0503508, -1.9089539, 0.59867865
1565633692790, 9.864152, 5.647456, -7.7622585, -2.2704787, 2.3156216, 1.0940266, -1.953695, 0.5901565
1565633692791, 9.884049, 5.621111, -7.7383084, -2.4932153, 2.3371384, 1.123854, -1.9664782, 0.5763081
1565633692796, 9.957904, 5.604346, -7.7454934, -2.7854078, 2.3602204, 1.1547467, -1.973935, 0.5837649
1565633692800, 10.203556, 5.760022, -7.800579, -3.175796, 2.3393888, 1.160073, -1.9451729, 0.5858955
1565633692805, 10.334478, 5.726492, -7.8844047, -3.4416432, 2.2932305, 1.1494204, -1.8919097, 0.59867865
1565633692808, 10.568141, 5.961204, -7.8341093, -3.8440065, 2.2352867, 1.139833, -1.824798, 0.6061355
1565633692816, 10.796799, 6.0043144, -7.9730206, -4.1170387, 2.1642478, 1.1153319, -1.7491642, 0.61678815
1565633692817, 10.93066, 6.1599903, -7.8365045, -4.485872, 2.0833006, 1.0769824, -1.6660736, 0.6359629
1565633692826, 11.164811, 6.327642, -7.8820095, -4.742139, 1.9934944, 1.0247844, -1.5851135, 0.6412892
1565633692827, 11.378214, 6.485713, -7.838899, -5.094207, 1.8932302, 0.9896307, -1.4764565, 0.65194184
1565633692835, 11.537395, 6.6677346, -7.788604, -5.2905984, 1.7825391, 0.91612744, -1.381648, 0.65513766
1565633692837, 11.794568, 6.9383717, -7.726333, -5.592371, 1.668617, 0.86179894, -1.2697952, 0.65513766
1565633692846, 12.02286, 7.3527102, -7.661668, -5.637876, 1.5460525, 0.80533993, -1.1558119, 0.63702816
1565633692847, 11.692751, 7.230564, -7.302415, -5.5780005, 1.4312279, 0.74675035, -1.0524813, 0.61891866
1565633692856, 12.850205, 8.229287, -7.647298, -6.239026, 1.2828097, 0.65726817, -0.94275904, 0.5699165
1565633692858, 13.166511, 8.387359, -7.6161623, -6.70845, 1.1284585, 0.551807, -0.84368944, 0.5070659
1565633692866, 13.072919, 8.466394, -7.321575, -6.7539554, 0.9690294, 0.44421527, -0.74035877, 0.43995422
1565633692868, 13.162628, 8.59333, -7.199429, -6.8976564, 0.8046809, 0.30999196, -0.64341974, 0.37071204
1565633692877, 13.311762, 8.729847, -7.077283, -7.1347637, 0.6574374, 0.19387813, -0.55287224, 0.29827404
1565633692880, 13.294291, 8.811277, -7.0916533, -6.9862723, 0.5143959, 0.083090626, -0.4612595, 0.21198763
1565633692887, 13.512561, 8.981323, -7.2185893, -7.0581226, 0.4001043, -0.034088463, -0.38136467, 0.11611383
1565633692888, 13.507689, 8.990904, -7.28565, -6.967112, 0.3369487, -0.13635385, -0.30786142, 0.0127831735
1565633692897, 13.431208, 8.954978, -7.199429, -6.9551373, 0.3445023, -0.2514024, -0.221575, -0.07989483
1565633692898, 13.293973, 8.909473, -7.288045, -6.6509695, 0.43685323, -0.35473305, -0.17044231, -0.18961707
1565633692907, 13.041611, 8.557405, -7.443721, -6.437813, 0.52906764, -0.44101948, -0.12037488, -0.26631612
1565633692908, 12.75642, 8.303533, -7.553892, -6.0593996, 0.62953615, -0.5187838, -0.09374327, -0.34408042
1565633692918, 12.467764, 7.9682302, -7.7287283, -5.6761966, 0.68889344, -0.5592638, -0.05539375, -0.39840892
1565633692920, 12.261482, 7.726333, -7.94428, -5.247488, 0.75645554, -0.60080916, -0.02130529, -0.45912898
1565633692927, 11.980462, 7.398216, -8.073611, -4.8594947, 0.7975929, -0.61678815, 0.027696876, -0.5049353
1565633692929, 11.928309, 7.2257743, -8.248447, -4.6942387, 0.8219045, -0.6040049, 0.07882957, -0.551807
1565633692937, 11.649482, 6.962322, -8.190968, -4.488267, 0.85198784, -0.6178534, 0.11504856, -0.5752428
1565633692939, 11.532502, 6.701265, -8.337064, -4.311035, 0.8926859, -0.63383234, 0.15020229, -0.6103965
1565633692948, 11.609319, 6.583909, -8.62207, -4.133804, 0.9189461, -0.6423545, 0.18109496, -0.6317018
1565633692949, 11.787183, 6.4258375, -8.923843, -4.2439747, 0.9454881, -0.63702816, 0.2247708, -0.66152924
1565633692957, 12.029478, 6.3779373, -9.244776, -4.3086405, 0.98175377, -0.660464, 0.26738137, -0.67537767
1565633692959, 12.3273325, 6.353987, -9.587264, -4.4355764, 1.0073043, -0.6711166, 0.28868666, -0.69348717
1565633692967, 12.370945, 6.3156667, -9.690249, -4.387676, 1.0231032, -0.6785734, 0.3153183, -0.69774824
1565633692968, 12.605827, 6.2749515, -10.068663, -4.26074, 1.0433971, -0.69135666, 0.33449304, -0.70627034
1565633692979, 12.899402, 6.3947024, -10.291399, -4.4259963, 1.0467236, -0.67963874, 0.3568636, -0.71159667
1565633692981, 13.3240185, 6.3947024, -10.799144, -4.4738965, 1.0625664, -0.6956177, 0.35579833, -0.72011876
1565633692989, 13.741318, 6.5623536, -11.167976, -4.5864625, 1.0710279, -0.7041398, 0.36218992, -0.721184
1565633692993, 14.190201, 6.813831, -11.53202, -4.6846585, 1.0912858, -0.7275756, 0.350472, -0.7339672
1565633692998, 14.741383, 7.084468, -11.920012, -5.0031962, 1.1052939, -0.7552725, 0.32597092, -0.73822826
1565633693000, 15.041809, 7.1323686, -12.248131, -5.0367265, 1.1248714, -0.7861652, 0.30466563, -0.74461985
1565633693010, 15.483442, 7.32397, -12.648099, -5.110972, 1.1312292, -0.81066626, 0.28122982, -0.737163
1565633693011, 15.521162, 7.443721, -12.681629, -4.967271, 1.1433797, -0.83516735, 0.23861924, -0.7435546
1565633693018, 15.804718, 7.6185575, -12.904366, -5.022356, 1.1675833, -0.87032104, 0.21944448, -0.74675035
1565633693019, 15.953129, 7.767049, -13.007352, -4.998406, 1.18764, -0.9054748, 0.17257284, -0.7488809
1565633693028, 16.03489, 7.965835, -13.0241165, -4.902605, 1.2137758, -0.9331717, 0.1257012, -0.76592517
1565633693029, 15.991431, 8.138277, -13.000167, -4.526587, 1.2298251, -0.95234644, 0.10333065, -0.77125144
1565633693038, 15.764841, 8.226892, -12.741505, -4.3014555, 1.2455752, -0.94488955, 0.056459017, -0.809601
1565633693039, 15.428157, 8.231683, -12.511582, -3.7050953, 1.2717963, -0.95447695, -0.0031957934, -0.8404937
1565633693048, 15.034416, 8.0999565, -12.248131, -3.2260914, 1.2713064, -0.9139969, -0.053263225, -0.88203895
1565633693049, 14.608573, 8.135881, -11.860137, -2.560276, 1.2759489, -0.86499476, -0.113983296, -0.9310411
1565633693058, 14.220248, 7.9921803, -11.567945, -2.1267774, 1.2804878, -0.7861652, -0.1949434, -0.9917612
1565633693059, 13.7698555, 7.776629, -11.244617, -1.6405884, 1.3213943, -0.70840085, -0.31318775, -1.0705907
1565633693068, 13.118907, 7.479646, -10.734478, -0.9651929, 1.3612987, -0.6103965, -0.44528055, -1.1323761
1565633693069, 12.5022135, 7.1060233, -10.279425, -0.3784131, 1.414431, -0.47297743, -0.60507023, -1.1877699
1565633693079, 12.056297, 6.959927, -9.843531, -0.13651612, 1.5338174, -0.33768883, -0.7861652, -1.2729911
1565633693079, 11.830621, 6.8665214, -9.632769, 0.15567628, 1.6861807, -0.19068234, -0.9779128, -1.3603427
1565633693089, 11.522898, 6.7563505, -9.328602, 0.32572266, 1.8690034, -0.051132694, -1.171791, -1.4551512
1565633693090, 11.288817, 6.6653395, -9.110655, 0.081430666, 2.0775023, 0.084155895, -1.361408, -1.567004
1565633693099, 11.013359, 6.430628, -8.940608, -0.081430666, 2.2683616, 0.19920446, -1.5275892, -1.6650083
1565633693100, 10.718841, 6.198311, -8.727451, -0.55324954, 2.4277632, 0.27164245, -1.6479641, -1.7619474
1565633693108, 10.372418, 5.8342676, -8.499925, -1.1400293, 2.5369058, 0.3206446, -1.7182716, -1.8386464
1565633693109, 10.13978, 5.2882032, -8.4448395, -1.8800904, 2.6048183, 0.34194988, -1.7459685, -1.9025623
1565633693118, 9.968264, 4.7972245, -8.382568, -2.4668703, 2.616738, 0.32490566, -1.7342505, -1.9323897
1565633693123, 9.974736, 4.4571314, -8.377779, -3.0728102, 2.5735443, 0.29294774, -1.6767262, -1.9302592
1565633693129, 9.904909, 3.8272414, -8.370594, -3.65959, 2.4889266, 0.23435818, -1.5797871, -1.9089539
1565633693130, 9.90605, 3.391348, -8.270002, -4.27032, 2.3762076, 0.15339808, -1.4572818, -1.8706044
1565633693139, 10.052279, 3.0201197, -8.380174, -4.6583133, 2.2167463, 0.054328486, -1.3113406, -1.7864485
1565633693140, 10.29597, 3.0201197, -8.428074, -5.0846267, 2.0640914, -0.05219796, -1.144094, -1.7172064
1565633693152, 10.3579855, 2.8716285, -8.55501, -5.0846267, 1.9093002, -0.15765914, -0.99069595, -1.6245283
1565633693153, 10.4352865, 2.7542725, -8.634046, -5.1732426, 1.7893212, -0.26525086, -0.8479505, -1.5531555
1565633693164, 10.547998, 2.680027, -8.847202, -5.079837, 1.6865054, -0.3717773, -0.7318367, -1.4732608
1565633693164, 10.531604, 2.7303224, -8.897498, -4.9289503, 1.6128511, -0.46232477, -0.6498113, -1.401888
1565633693175, 10.539387, 2.799778, -9.127419, -4.4643164, 1.5569874, -0.52837116, -0.61678815, -1.3283848
1565633693176, 10.523811, 2.938689, -9.259146, -4.047583, 1.5184716, -0.56672066, -0.62104917, -1.2644689
1565633693182, 10.660519, 3.1111305, -9.510623, -3.6763551, 1.5086206, -0.6135923, -0.64768076, -1.216532
1565633693183, 10.685669, 3.3362625, -9.553733, -3.432063, 1.5091599, -0.6423545, -0.69774824, -1.1739215
1565633693191, 10.763281, 3.532654, -9.632769, -3.2524366, 1.5288671, -0.6743124, -0.75101143, -1.1483551
1565633693192, 10.859586, 3.7146754, -9.75252, -3.0033545, 1.5535158, -0.6870956, -0.81918836, -1.1270498
1565633693207, 10.8600025, 3.9398074, -9.73815, -2.7542725, 1.5860367, -0.71159667, -0.8841695, -1.107875
1565633693208, 10.837783, 4.2080493, -9.623189, -2.672842, 1.6001556, -0.7052051, -0.9257148, -1.0982877
1565633693210, 10.895425, 4.397256, -9.654325, -2.4836354, 1.6041814, -0.716923, -0.92997587, -1.0929613
1565633693211, 10.834215, 4.670288, -9.4507475, -2.5004005, 1.6049011, -0.7350325, -0.91825795, -1.091896
1565633693226, 10.8278, 4.8451247, -9.386082, -2.3806496, 1.5972843, -0.7456851, -0.8948221, -1.0929613
1565633693227, 10.845177, 4.9217653, -9.374106, -2.3495142, 1.5755635, -0.7584683, -0.84688526, -1.0908308
1565633693231, 10.688601, 4.9433208, -9.21364, -2.2177882, 1.5517291, -0.77444726, -0.77125144, -1.1014835
1565633693231, 10.6042, 5.0678616, -9.0891, -2.0381618, 1.5170151, -0.79255676, -0.6764429, -1.1025487
1565633693245, 10.360974, 4.960086, -8.849598, -2.1052222, 1.4774035, -0.8021441, -0.57098174, -1.1014835
1565633693245, 10.276752, 4.9169755, -8.813672, -1.9375709, 1.4311819, -0.81705785, -0.4314321, -1.0929613
1565633693251, 10.121795, 4.9361353, -8.631651, -1.8920655, 1.3910307, -0.81705785, -0.28655612, -1.0887003
1565633693252, 9.935651, 4.737349, -8.547825, -1.7914747, 1.3542733, -0.8223842, -0.1438107, -1.0663297
1565633693261, 9.788793, 4.5409575, -8.49274, -1.7531544, 1.3459674, -0.8213189, -0.002130529, -1.0663297
1565633693262, 9.593016, 4.3325906, -8.432864, -1.463357, 1.3193209, -0.8085357, 0.12144015, -1.0354371
1565633693272, 9.429619, 4.169729, -8.349038, -1.3507911, 1.3061055, -0.773382, 0.23542345, -1.0258497
1565633693273, 9.320004, 3.9493873, -8.370594, -1.094524, 1.2868615, -0.74248934, 0.3057309, -1.0056096
1565633693282, 9.12724, 3.7482057, -8.274793, -0.8861573, 1.2657212, -0.6924219, 0.37284255, -0.9917612
1565633693283, 8.970562, 3.558999, -8.202942, -0.7185059, 1.2336214, -0.6317018, 0.4079963, -0.9779128
1565633693294, 8.723205, 3.3602126, -8.028106, -0.5939649, 1.2006145, -0.5656554, 0.43356264, -0.96619487
1565633693294, 8.659395, 3.3458424, -7.965835, -0.57959473, 1.1732649, -0.5134575, 0.43782368, -0.9598033
1565633693302, 8.494041, 3.2572267, -7.810159, -0.73527104, 1.1472344, -0.46232477, 0.44208476, -0.95234644
1565633693303, 8.342154, 3.0201197, -7.7335186, -0.8143067, 1.1168936, -0.4133226, 0.43569317, -0.9416938
1565633693312, 8.208915, 2.9338992, -7.6041875, -0.977168, 1.0949017, -0.37923414, 0.4101268, -0.9416938
1565633693312, 8.185634, 2.9458742, -7.558682, -1.092129, 1.061832, -0.35579833, 0.38456047, -0.9235843
1565633693325, 7.865995, 2.555486, -7.335945, -1.2358302, 1.0448046, -0.33662358, 0.37284255, -0.91612744
1565633693326, 7.822469, 2.4668703, -7.288045, -1.4106666, 1.0441732, -0.34194988, 0.34408042, -0.92464954
1565633693331, 7.7661424, 2.4740553, -7.173084, -1.6549586, 1.0001801, -0.35473305, 0.30146983, -0.8852348
1565633693333, 7.699051, 2.3303542, -7.103628, -1.839375, 0.99311507, -0.35792887, 0.2695119, -0.8863
1565633693343, 7.5536194, 2.1818628, -6.9790874, -1.8944606, 0.97481066, -0.3717773, 0.23755397, -0.8692558
1565633693344, 7.467149, 2.090852, -6.9096317, -1.9088306, 0.9700635, -0.39734364, 0.1917476, -0.86392945
1565633693355, 7.497957, 2.0980372, -6.9240017, -1.9687061, 0.947349, -0.40586576, 0.15659387, -0.84155893
1565633693356, 7.528842, 2.0525317, -7.0174074, -1.7962648, 0.9358189, -0.41545314, 0.112918034, -0.8309063
1565633693365, 7.4463487, 1.9136207, -6.998247, -1.6765138, 0.90511507, -0.42077947, 0.07456851, -0.7978831
1565633693366, 7.4617934, 1.7890797, -7.074888, -1.5567628, 0.8702148, -0.4111921, 0.039414786, -0.76592517
1565633693376, 7.5373435, 1.6357985, -7.201824, -1.5064673, 0.8448897, -0.4101268, 0.025566347, -0.73822826
1565633693376, 7.5176625, 1.5304176, -7.2545147, -1.2430152, 0.79962486, -0.39414784, 0.0127831735, -0.6956177
1565633693386, 7.591123, 1.4370118, -7.3694754, -1.1184741, 0.73928815, -0.36218992, -0.002130529, -0.644485
1565633693387, 7.5135508, 1.2981006, -7.31918, -1.094524, 0.6712223, -0.33662358, 0.0127831735, -0.58056915
1565633693396, 7.608522, 1.2645704, -7.4269557, -1.0633887, 0.5956876, -0.29614353, 0.036218993, -0.515588
1565633693397, 7.616516, 1.1903248, -7.455696, -1.0035132, 0.5266287, -0.257794, 0.070307456, -0.45380265
1565633693406, 7.696, 1.1567944, -7.5395217, -1.0226734, 0.45416513, -0.22264028, 0.12037488, -0.37710363
1565633693407, 7.627507, 1.1208692, -7.470066, -1.0585986, 0.40451726, -0.18216023, 0.18535602, -0.30999196
1565633693416, 7.6777534, 1.21188, -7.4916215, -1.1639795, 0.37276495, -0.15339808, 0.23755397, -0.2428803
1565633693417, 7.720166, 1.5280225, -7.443721, -1.3627661, 0.35727835, -0.111852765, 0.2876214, -0.18002969
1565633693425, 7.829998, 1.5783179, -7.5035963, -1.585503, 0.3849159, -0.09267801, 0.3536678, -0.12037488
1565633693426, 7.941361, 1.7459693, -7.563472, -1.6765138, 0.41908237, -0.07137272, 0.406931, -0.070307456
1565633693435, 8.009957, 1.8058448, -7.585027, -1.8345851, 0.47504225, -0.05965481, 0.4708469, -0.020240024
1565633693436, 8.149255, 1.9208057, -7.6496925, -2.0501368, 0.49860406, -0.03834952, 0.49641323, 0.026631612
1565633693444, 8.410498, 2.078877, -7.8365045, -2.2369483, 0.5201382, -0.049002163, 0.5134575, 0.06711166
1565633693445, 8.515978, 2.069297, -7.8868, -2.4572902, 0.5376875, -0.05539375, 0.52411014, 0.10652645
1565633693454, 8.769978, 2.203418, -8.061636, -2.6584718, 0.5525766, -0.06498113, 0.52624065, 0.1555286
1565633693455, 8.910577, 2.3662794, -8.119117, -2.806963, 0.56039387, -0.08948222, 0.5219796, 0.18322548
1565633693466, 9.039631, 2.550696, -8.181387, -2.8764186, 0.567763, -0.10333065, 0.515588, 0.21411815
1565633693467, 9.30041, 2.672842, -8.387359, -3.0009596, 0.5592679, -0.10759171, 0.49215218, 0.2428803
1565633693477, 9.45725, 2.7087672, -8.54543, -3.0129347, 0.5785043, -0.13209279, 0.49854377, 0.26205507
1565633693477, 9.606083, 2.802173, -8.641231, -3.1231055, 0.58114743, -0.13422333, 0.48363006, 0.29294774
1565633693486, 9.80879, 2.7566676, -8.861572, -3.175796, 0.59741014, -0.13315806, 0.48043427, 0.3291667
1565633693487, 9.989079, 2.7375073, -9.05557, -3.2069314, 0.6095631, -0.13209279, 0.47297743, 0.36112466
1565633693495, 10.046123, 2.7279274, -9.182506, -3.027305, 0.6446919, -0.1257012, 0.4857606, 0.4048005
1565633693496, 10.050915, 2.548301, -9.307046, -2.811753, 0.6794041, -0.10759171, 0.4910869, 0.45699844
1565633693504, 10.141327, 2.565066, -9.426797, -2.7207422, 0.7189107, -0.083090626, 0.5028048, 0.5070659
1565633693505, 10.246234, 2.5171657, -9.570498, -2.6560767, 0.77828634, -0.04474111, 0.5187838, 0.5784386
1565633693514, 10.261889, 2.44771, -9.599238, -2.6776319, 0.84174836, -0.023435818, 0.5422196, 0.64341974
1565633693515, 10.21121, 2.4213648, -9.604029, -2.4836354, 0.91946214, 0.02876214, 0.5763081, 0.71585774
1565633693523, 10.246698, 2.3998096, -9.64714, -2.4836354, 0.9882365, 0.07350325, 0.6040049, 0.77870834
1565633693525, 10.374419, 2.6896071, -9.707015, -2.4836354, 1.0631366, 0.13635385, 0.64768076, 0.8319715
1565633693534, 10.616995, 2.9626393, -9.857901, -2.6009912, 1.1361384, 0.18216023, 0.6870956, 0.8863
1565633693535, 10.86373, 3.2524366, -10.023157, -2.6417067, 1.2162825, 0.24714136, 0.753142, 0.922519
1565633693545, 11.181814, 3.5039136, -10.236314, -2.823728, 1.3012806, 0.29614353, 0.8032094, 0.9800433
1565633693552, 11.62788, 3.6931202, -10.528506, -3.2739918, 1.3621118, 0.33662358, 0.8586032, 1.0024139
1565633693555, 12.106937, 3.891907, -10.875784, -3.6260598, 1.4270922, 0.3685815, 0.89801794, 1.0460896
1565633693556, 12.63768, 4.0859036, -11.256593, -4.038003, 1.4722605, 0.37923414, 0.9257148, 1.0801781
1565633693569, 12.972191, 3.9901028, -11.510465, -4.4571314, 1.5122925, 0.386691, 0.92997587, 1.128115
1565633693569, 13.302746, 3.9853127, -11.766731, -4.756509, 1.5438391, 0.36751625, 0.9193232, 1.1845741
1565633693578, 13.591755, 4.040398, -11.975099, -5.000801, 1.567277, 0.33129725, 0.89801794, 1.2410331
1565633693579, 13.808291, 4.0811133, -12.169095, -5.0918117, 1.5970758, 0.32277513, 0.8671253, 1.3017532
1565633693589, 14.073616, 4.277505, -12.353511, -5.2115626, 1.6069309, 0.28016454, 0.8223842, 1.3518206
1565633693589, 14.18908, 4.4451566, -12.4541025, -5.144502, 1.6215904, 0.2545982, 0.7819041, 1.397627
1565633693595, 14.157475, 4.3637257, -12.463682, -5.103787, 1.6615893, 0.24394555, 0.737163, 1.4689997
1565633693596, 14.095755, 4.497847, -12.422967, -4.912185, 1.6786655, 0.24607609, 0.6849651, 1.5126755
1565633693606, 14.033702, 4.5792775, -12.458892, -4.5553274, 1.6931251, 0.25033715, 0.628506, 1.5520903
1565633693606, 13.8531, 4.670288, -12.248131, -4.481082, 1.7230924, 0.2727077, 0.5784386, 1.6000272
1565633693619, 13.601175, 4.8259645, -12.001443, -4.2032595, 1.7372413, 0.29614353, 0.51665324, 1.6319852
1565633693620, 13.370874, 4.9289503, -11.7930765, -3.9254372, 1.7465004, 0.3334278, 0.4612595, 1.6511599
1565633693627, 13.188771, 5.130132, -11.55597, -3.7529957, 1.7629728, 0.37923414, 0.39095205, 1.6767262
1565633693628, 13.1936865, 5.2882032, -11.505674, -3.7050953, 1.773683, 0.4133226, 0.32597092, 1.6937705
1565633693636, 12.997934, 5.53489, -11.201507, -3.5829494, 1.7907754, 0.46658584, 0.27057716, 1.707619
1565633693637, 12.758559, 5.6450615, -10.873389, -3.5613942, 1.807175, 0.51771855, 0.2130529, 1.7182716
1565633693650, 12.55512, 5.872588, -10.523716, -3.5206788, 1.8074932, 0.567786, 0.16937704, 1.707619
1565633693651, 12.362981, 6.0570045, -10.205178, -3.4655933, 1.8226886, 0.60933125, 0.14274544, 1.71188
1565633693658, 12.057205, 6.241421, -9.678274, -3.5709743, 1.8215418, 0.65513766, 0.12783173, 1.6948358
1565633693659, 11.875619, 6.327642, -9.326206, -3.7434156, 1.8250477, 0.69029135, 0.11930962, 1.6852484
1565633693668, 11.7544365, 6.591094, -8.959768, -3.8008962, 1.813969, 0.72437984, 0.12144015, 1.6586168
1565633693669, 11.629689, 6.7300053, -8.62207, -3.9517825, 1.7877188, 0.72970617, 0.13209279, 1.6266588
1565633693677, 11.482601, 6.7659307, -8.241262, -4.26074, 1.7517052, 0.7254451, 0.13954964, 1.5883093
1565633693678, 11.364602, 6.8904715, -7.8700347, -4.4427614, 1.7062507, 0.71479243, 0.16618125, 1.5403724
1565633693687, 11.443473, 7.0293827, -7.6185575, -4.84752, 1.6474516, 0.6775082, 0.17576863, 1.4913702
1565633693688, 11.473345, 7.0413575, -7.4125857, -5.206773, 1.5631499, 0.6178534, 0.18216023, 1.4242586
1565633693697, 11.560176, 7.151529, -7.199429, -5.5372853, 1.4712452, 0.5400891, 0.19920446, 1.3539511
1565633693698, 11.7601595, 7.223379, -7.2593045, -5.7815776, 1.373387, 0.45167214, 0.19281286, 1.2825783
1565633693708, 11.724912, 7.206614, -7.077283, -5.9540186, 1.2824876, 0.34621096, 0.19281286, 1.2197278
1565633693709, 11.781475, 7.1156034, -7.103628, -6.1408305, 1.187799, 0.22370553, 0.18642128, 1.1515509
1565633693720, 11.627416, 6.962322, -7.0509377, -6.0833497, 1.1182112, 0.13209279, 0.17044231, 1.0972224
1565633693721, 11.584436, 7.0030375, -7.0054326, -6.006709, 1.0548679, 0.025566347, 0.14913702, 1.0439591
1565633693726, 11.566473, 6.998247, -7.1467385, -5.807923, 0.9980715, -0.07563378, 0.12357068, 0.98750013
1565633693727, 11.399189, 6.8521514, -7.1443434, -5.6522465, 0.9501729, -0.15978967, 0.10226539, 0.9310411
1565633693736, 11.562978, 6.9719024, -7.3958206, -5.513335, 0.9116554, -0.24181503, 0.07669904, 0.87564737
1565633693737, 11.406762, 6.976692, -7.407796, -5.1540823, 0.87355644, -0.3121225, 0.05752428, 0.813862
1565633693750, 11.426698, 7.084468, -7.6041875, -4.749324, 0.85301876, -0.36112466, 0.049002163, 0.77125144
1565633693751, 11.354333, 7.0221977, -7.7071733, -4.495452, 0.8159265, -0.3930826, 0.04261058, 0.7137272
1565633693760, 11.223151, 7.0245924, -7.719148, -4.126619, 0.79069465, -0.42290998, 0.05539375, 0.66579026
1565633693761, 11.166269, 6.957532, -7.831714, -3.8655617, 0.76334655, -0.44421527, 0.070307456, 0.61678815
1565633693770, 11.06011, 6.7970657, -7.862849, -3.781736, 0.7379761, -0.46232477, 0.10439592, 0.5656554
1565633693771, 11.052867, 6.7970657, -7.932305, -3.6116896, 0.7280761, -0.47191215, 0.15020229, 0.5336975
1565633693780, 10.943894, 6.7874856, -7.9059596, -3.3458424, 0.7127869, -0.47617322, 0.18961707, 0.49534798
1565633693781, 10.80825, 6.6653395, -7.8700347, -3.2332766, 0.7098683, -0.47617322, 0.24181503, 0.4676511
1565633693790, 10.607397, 6.4928985, -7.8365045, -2.9913795, 0.7126843, -0.47617322, 0.30679616, 0.43249738
1565633693791, 10.467851, 6.356382, -7.781419, -2.936294, 0.7315575, -0.4644553, 0.3749731, 0.42290998
1565633693800, 10.333228, 6.167176, -7.7454934, -2.9578493, 0.7469548, -0.4612595, 0.43569317, 0.39414784
1565633693801, 10.192521, 6.095325, -7.6664577, -2.8213332, 0.7703004, -0.46658584, 0.48149952, 0.37923414
1565633693811, 9.968125, 5.855823, -7.6017923, -2.699187, 0.7808832, -0.45486793, 0.5219796, 0.36112466
1565633693812, 9.780497, 5.745652, -7.4844365, -2.574646, 0.796186, -0.43782368, 0.57098174, 0.34088463
1565633693818, 9.594628, 5.6570363, -7.340735, -2.4836354, 0.7986166, -0.4133226, 0.6040049, 0.31957933
1565633693819, 9.422378, 5.4678297, -7.247329, -2.5219557, 0.8105214, -0.4079963, 0.6295713, 0.30679616
1565633693830, 9.318817, 5.2977834, -7.168294, -2.7183473, 0.8130383, -0.39947417, 0.6466155, 0.28868666
1565633693831, 9.273435, 5.295388, -7.086863, -2.7806177, 0.8141674, -0.4079963, 0.6487461, 0.27483824
1565633693839, 9.111134, 5.1157618, -6.9551373, -2.9099488, 0.815109, -0.4250405, 0.64555025, 0.25885928
1565633693840, 8.992011, 4.9720607, -6.854546, -3.0249097, 0.8042041, -0.4346279, 0.6327671, 0.2396845
1565633693849, 8.972553, 4.9409256, -6.8018556, -3.1350808, 0.80037665, -0.45167214, 0.6221144, 0.22264028
1565633693850, 8.869957, 4.8211746, -6.782696, -3.0704153, 0.80370724, -0.4644553, 0.6199839, 0.21411815
1565633693861, 8.642118, 4.5385623, -6.6773148, -3.0823903, 0.79894125, -0.47723848, 0.6061355, 0.20772657
1565633693862, 8.527076, 4.4403663, -6.598279, -3.0752053, 0.79078865, -0.479369, 0.5965481, 0.19920446
1565633693871, 8.388209, 4.380491, -6.502478, -2.9817994, 0.7763023, -0.49215218, 0.56672066, 0.19813919
1565633693872, 8.320041, 4.2296047, -6.5048733, -3.0033545, 0.7699828, -0.49641323, 0.5550028, 0.19600865
1565633693881, 8.159887, 4.1050634, -6.3635674, -3.03928, 0.7661925, -0.5070659, 0.53795856, 0.20133498
1565633693883, 8.151611, 4.0906935, -6.358777, -3.046465, 0.7563633, -0.5091964, 0.5273059, 0.18642128
1565633693891, 8.06231, 3.9469924, -6.353987, -3.0081446, 0.7507576, -0.5134575, 0.5134575, 0.19068234
1565633693892, 7.942753, 3.8511915, -6.3132715, -2.8979738, 0.7413896, -0.51026165, 0.49960902, 0.19920446
1565633693898, 7.8215218, 3.666775, -6.2989016, -2.8380983, 0.7343049, -0.51026165, 0.48363006, 0.21198763
1565633693899, 7.665549, 3.5661843, -6.2917166, -2.5411158, 0.7148409, -0.4825648, 0.4708469, 0.23755397
1565633693908, 7.5909266, 3.4009278, -6.332432, -2.440525, 0.6961167, -0.45699844, 0.45380265, 0.26418558
1565633693909, 7.5213523, 3.3745828, -6.3084817, -2.320774, 0.6806281, -0.4314321, 0.4463458, 0.2790993
1565633693919, 7.4567995, 3.290757, -6.3012967, -2.2513185, 0.66473186, -0.40266997, 0.43675843, 0.29827404
1565633693927, 7.5635333, 3.290757, -6.4162574, -2.2824538, 0.6643741, -0.37284255, 0.43888897, 0.33129725
1565633693928, 7.5848293, 3.3171022, -6.456973, -2.198628, 0.66690147, -0.3323625, 0.4463458, 0.36751625
1565633693929, 7.6272516, 3.271597, -6.5216384, -2.2225783, 0.6575798, -0.28122982, 0.44208476, 0.39734364
1565633693941, 7.6839447, 3.290757, -6.6198344, -2.095642, 0.64885277, -0.20772657, 0.43995422, 0.4293016
1565633693942, 7.768732, 3.4296682, -6.6413894, -2.1171973, 0.649724, -0.17044231, 0.43036684, 0.45593318
1565633693955, 7.9017334, 3.5805542, -6.6413894, -2.3471193, 0.6609706, -0.12250541, 0.43356264, 0.48363006
1565633693956, 8.032411, 3.7146754, -6.6844997, -2.4572902, 0.6706125, -0.08948222, 0.4346279, 0.5028048
1565633693959, 8.151913, 3.9134622, -6.6270194, -2.687212, 0.6663525, -0.06391586, 0.4250405, 0.5091964
1565633693959, 8.161912, 3.903882, -6.6174393, -2.7542725, 0.6693676, -0.0479369, 0.4293016, 0.5113269
1565633693972, 8.261962, 4.1793094, -6.5312185, -2.8524685, 0.66800153, -0.03195793, 0.4261058, 0.5134575
1565633693973, 8.28537, 4.24637, -6.473738, -2.9506643, 0.65598935, -0.014913702, 0.4079963, 0.5134575
1565633693979, 8.273619, 4.2200246, -6.485713, -2.929109, 0.65465677, 0.002130529, 0.4101268, 0.51026165
1565633693980, 8.32999, 4.373306, -6.4354177, -2.9746144, 0.64183223, 0.024501082, 0.4048005, 0.49747851
1565633693990, 8.150483, 4.3301954, -6.3012967, -2.823728, 0.6430793, 0.0479369, 0.38562572, 0.5123922
1565633693990, 8.169286, 4.4619217, -6.236631, -2.816543, 0.6250924, 0.083090626, 0.35899413, 0.5049353
1565633694000, 8.046414, 4.3421707, -6.200706, -2.7279274, 0.61198217, 0.10013486, 0.34514567, 0.49534798
1565633694001, 8.157728, 4.394861, -6.2797413, -2.792593, 0.6030338, 0.13422333, 0.30466563, 0.5028048
1565633694009, 8.214775, 4.488267, -6.2773466, -2.816543, 0.5884012, 0.16937704, 0.27057716, 0.49428272
1565633694010, 8.473506, 4.634363, -6.464158, -2.9219239, 0.5693507, 0.19600865, 0.23435818, 0.48043427
1565633694019, 8.685475, 4.775669, -6.569539, -3.0776002, 0.5483588, 0.20879184, 0.21518342, 0.45912898
1565633694020, 9.057703, 4.893025, -6.8856816, -3.2692018, 0.54242885, 0.23861924, 0.17150758, 0.45593318
1565633694029, 9.322472, 5.022356, -7.072493, -3.415298, 0.52928424, 0.25672874, 0.12250541, 0.4463458
1565633694030, 9.632705, 5.1468973, -7.340735, -3.523074, 0.5214587, 0.27483824, 0.080960095, 0.43569317
1565633694039, 9.937752, 5.4103494, -7.5035963, -3.6308498, 0.521686, 0.29188246, 0.02876214, 0.4314321
1565633694040, 10.310492, 5.513335, -7.862849, -3.7529957, 0.5213248, 0.30679616, -0.024501082, 0.42077947
1565633694055, 10.633245, 5.7145166, -8.1071415, -3.8320315, 0.52842593, 0.32277513, -0.07137272, 0.41225734
1565633694056, 10.738496, 5.9300685, -8.102351, -3.8080812, 0.54124033, 0.33768883, -0.10759171, 0.40906155
1565633694062, 11.085295, 6.08814, -8.372989, -3.9637575, 0.5538597, 0.35792887, -0.1470065, 0.39627838
1565633694063, 11.345196, 6.2845316, -8.528665, -4.0595584, 0.5695829, 0.37816888, -0.15339808, 0.39734364
1565633694074, 11.753781, 6.701265, -8.59333, -4.404441, 0.54868567, 0.3834952, -0.16085494, 0.35792887
1565633694075, 11.904864, 6.912027, -8.624466, -4.423601, 0.5462813, 0.39734364, -0.15126756, 0.34301516
1565633694079, 12.1307535, 7.117998, -8.636441, -4.679868, 0.5274135, 0.39414784, -0.1438107, 0.31957933
1565633694080, 12.130348, 7.0916533, -8.6077, -4.7708793, 0.5036043, 0.39095205, -0.10865697, 0.29827404
1565633694090, 12.348759, 7.158714, -8.710687, -5.0367265, 0.4571313, 0.35579833, -0.08948222, 0.2727077
1565633694093, 12.399225, 7.321575, -8.617281, -5.087022, 0.41299027, 0.32597092, -0.06924219, 0.24394555
1565633694104, 12.579874, 7.479646, -8.614885, -5.3001785, 0.3677755, 0.29188246, -0.043675844, 0.21944448
1565633694105, 12.614022, 7.577842, -8.646021, -5.1900077, 0.30527028, 0.25672874, -0.01917476, 0.16405073
1565633694110, 12.772074, 7.699988, -8.777747, -5.1756372, 0.2706044, 0.23435818, 0.0, 0.13528858
1565633694112, 12.778817, 7.7454934, -8.799302, -5.087022, 0.22455613, 0.2066613, 0.02130529, 0.08522116
1565633694120, 12.833388, 7.8604546, -8.890313, -4.88584, 0.19718905, 0.1917476, 0.03089267, 0.034088463
1565633694121, 12.977865, 7.932305, -9.0076685, -4.9361353, 0.18181415, 0.1736381, 0.046871636, -0.026631612
1565633694134, 13.2634535, 8.150251, -9.278306, -4.8379397, 0.19848825, 0.165116, 0.06711166, -0.08735169
1565633694135, 13.5174885, 8.2197075, -9.604029, -4.7876444, 0.24274476, 0.16937704, 0.066046394, -0.16085494
1565633694144, 13.6326065, 8.138277, -9.800421, -4.854705, 0.29170552, 0.16831179, 0.06924219, -0.22796659
1565633694145, 13.662959, 7.9155397, -10.039923, -4.8187795, 0.32621625, 0.16192019, 0.07243799, -0.27377295
1565633694155, 13.705132, 7.661668, -10.243499, -4.91937, 0.35286635, 0.15765914, 0.06498113, -0.3089267
1565633694155, 13.717367, 7.438931, -10.41115, -4.9433208, 0.35618243, 0.1438107, 0.036218993, -0.32384038
1565633694164, 13.821939, 7.230564, -10.552457, -5.2355127, 0.36857843, 0.12463594, 0.02130529, -0.34621096
1565633694165, 14.028379, 7.2425394, -10.811119, -5.240303, 0.37426728, 0.101200126, 0.013848438, -0.36005938
1565633694175, 14.245818, 7.2281694, -11.00751, -5.4342995, 0.3796977, 0.066046394, 0.0010652645, -0.37390783
1565633694176, 14.513775, 7.2401443, -11.275752, -5.575606, 0.37590554, 0.020240024, -0.017044231, -0.3749731
1565633694183, 14.61368, 7.0365677, -11.529625, -5.5780005, 0.37657365, -0.025566347, -0.023435818, -0.3749731
1565633694184, 14.791212, 7.0221977, -11.718831, -5.6690116, 0.3646209, -0.070307456, -0.025566347, -0.3568636
1565633694191, 14.762529, 6.9383717, -11.7930765, -5.5420756, 0.36427215, -0.10439592, -0.02130529, -0.34834146
1565633694192, 14.713094, 7.0078273, -11.778707, -5.350474, 0.36051452, -0.13848437, -0.018109497, -0.3323625
1565633694201, 14.5591755, 6.991062, -11.721226, -5.0702567, 0.33860332, -0.15765914, -0.013848438, -0.29933932
1565633694202, 14.544971, 7.046148, -11.766731, -4.8427296, 0.33555833, -0.17257284, -0.00958738, -0.2876214
1565633694214, 14.390003, 7.101233, -11.668535, -4.526587, 0.31587026, -0.17150758, -0.0010652645, -0.26525086
1565633694215, 14.312996, 7.31439, -11.57992, -4.1553593, 0.3079075, -0.17150758, 0.0053263223, -0.25566345
1565633694224, 14.175397, 7.438931, -11.469749, -3.7482057, 0.31073055, -0.14487597, -0.0053263223, -0.27483824
1565633694225, 13.92125, 7.573052, -11.156001, -3.4631984, 0.30802727, -0.11824436, 0.0010652645, -0.28442562
1565633694234, 13.736, 7.673643, -10.94524, -3.1614258, 0.3298624, -0.083090626, -0.02130529, -0.31851408
1565633694235, 13.240638, 7.4916215, -10.554852, -2.7901978, 0.34869477, -0.03834952, -0.015978966, -0.34621096
1565633694245, 12.871722, 7.568262, -10.097403, -2.5387208, 0.3926435, 0.018109497, -0.0127831735, -0.3920173
1565633694246, 12.484575, 7.553892, -9.639954, -2.42376, 0.43119532, 0.07563378, -0.02130529, -0.42397526
1565633694252, 12.100942, 7.3862405, -9.311836, -2.2728736, 0.50125533, 0.11824436, -0.036218993, -0.4857606
1565633694253, 11.687741, 7.2593045, -8.873548, -2.2728736, 0.5681685, 0.16831179, -0.040480047, -0.5411543
1565633694262, 11.217656, 6.9862723, -8.487949, -2.2321582, 0.63524604, 0.22370553, -0.0628506, -0.59122175
1565633694263, 10.925629, 6.821016, -8.255632, -2.1650977, 0.7023187, 0.27057716, -0.09374327, -0.6412892
1565633694272, 10.638008, 6.6653395, -7.9706254, -2.2824538, 0.77799976, 0.3089267, -0.12463594, -0.7030745
1565633694275, 10.449004, 6.5312185, -7.798184, -2.3902297, 0.84799135, 0.33662358, -0.165116, -0.76059884
1565633694282, 10.237488, 6.361172, -7.6089773, -2.5387208, 0.92517096, 0.35473305, -0.21624869, -0.8266452
1565633694283, 10.103698, 6.085745, -7.5467067, -2.8452833, 0.99091184, 0.36645097, -0.2876214, -0.8745821
1565633694294, 9.896446, 5.750442, -7.4820414, -2.9817994, 1.0644561, 0.36325517, -0.35260254, -0.93636745
1565633694295, 9.756751, 5.47741, -7.4006104, -3.2284865, 1.1216795, 0.3536678, -0.42290998, -0.9768475
1565633694303, 9.672618, 5.158872, -7.3766603, -3.539839, 1.162267, 0.33981937, -0.4889564, -0.9981528
1565633694304, 9.581227, 4.8044095, -7.3742657, -3.786526, 1.1934737, 0.294013, -0.54648066, -1.019458
1565633694313, 9.530432, 4.4643164, -7.4964113, -3.8344264, 1.2236091, 0.24394555, -0.608266, -1.0333065
1565633694314, 9.550824, 4.169729, -7.527547, -4.143384, 1.2360272, 0.18748654, -0.67005134, -1.0215886
1565633694326, 9.639345, 4.047583, -7.702383, -4.148174, 1.2533618, 0.14274544, -0.73290193, -1.0066749
1565633694327, 9.57358, 3.8703518, -7.8029737, -3.9733377, 1.2737324, 0.098004326, -0.8127968, -0.9757822
1565633694336, 9.612956, 3.776946, -7.9730206, -3.8176613, 1.2849219, 0.04580637, -0.86606, -0.94808537
1565633694337, 9.739036, 3.8847218, -8.121511, -3.7146754, 1.3244163, 0.02130529, -0.9416938, -0.9310411
1565633694345, 9.902507, 4.061953, -8.334668, -3.4775686, 1.3593622, -0.013848438, -1.010936, -0.9086706
1565633694346, 10.167798, 4.366121, -8.533455, -3.391348, 1.4131198, -0.03195793, -1.0727214, -0.9193232
1565633694353, 10.31905, 4.720584, -8.62207, -3.1398706, 1.4563992, -0.049002163, -1.1302456, -0.9171927
1565633694355, 10.519049, 4.984036, -8.734636, -3.0847852, 1.479941, -0.07243799, -1.1558119, -0.9214538
1565633694365, 10.551576, 5.118157, -8.806487, -2.7542725, 1.5100415, -0.08522116, -1.1824435, -0.9353022
1565633694366, 10.786956, 5.2355127, -8.993299, -2.8404932, 1.5317262, -0.10013486, -1.200553, -0.94595486
1565633694376, 10.807196, 5.269043, -9.05557, -2.6512868, 1.5462673, -0.11824436, -1.2090752, -0.95660746
1565633694377, 10.8820715, 5.3935843, -9.09868, -2.5578809, 1.546902, -0.12783173, -1.1952267, -0.9736517
1565633694386, 10.87334, 5.381609, -9.11784, -2.4764502, 1.5319502, -0.13635385, -1.1792477, -0.9683254
1565633694387, 10.859706, 5.369634, -9.163345, -2.2656887, 1.4932234, -0.14168017, -1.1323761, -0.96299905
1565633694396, 10.753154, 5.3480787, -9.024434, -2.3638844, 1.4739546, -0.15659387, -1.0982877, -0.97045594
1565633694397, 10.604401, 5.384004, -8.828042, -2.3519094, 1.4465703, -0.17257284, -1.0428939, -0.98750013
1565633694407, 10.665343, 5.6426663, -8.760982, -2.2704787, 1.4261429, -0.19707392, -0.9864349, -1.010936
1565633694408, 10.546568, 5.6354814, -8.624466, -2.2561085, 1.3747022, -0.20772657, -0.9033443, -1.015197
1565633694417, 10.432223, 5.6187162, -8.52627, -2.1363575, 1.3623475, -0.23116238, -0.8213189, -1.0620687
1565633694418, 10.302735, 5.599556, -8.380174, -2.1363575, 1.3152574, -0.24607609, -0.7233146, -1.0705907
1565633694427, 10.150491, 5.4989653, -8.277188, -2.069297, 1.2810526, -0.2609898, -0.6263755, -1.0865698
1565633694428, 10.040587, 5.4319043, -8.234077, -1.8729054, 1.2486109, -0.25566345, -0.5273059, -1.1025487
1565633694434, 9.880748, 5.2810183, -8.131092, -1.9040406, 1.2385178, -0.2790993, -0.4282363, -1.128115
1565633694437, 9.763029, 5.0534916, -8.157437, -1.7986598, 1.2161835, -0.2790993, -0.34834146, -1.1313108
1565633694445, 9.626345, 4.8834453, -8.111932, -1.7363893, 1.2241428, -0.28229508, -0.27483824, -1.1590078
1565633694446, 9.484963, 4.6918435, -8.042476, -1.8082398, 1.2035575, -0.29614353, -0.19920446, -1.1494204
1565633694455, 9.35138, 4.524192, -7.999366, -1.7292042, 1.1891587, -0.29294774, -0.12996227, -1.1451592
1565633694457, 9.110598, 4.2751102, -7.8772197, -1.6357985, 1.1907952, -0.29614353, -0.06498113, -1.1515509
1565633694467, 9.028805, 4.1984696, -7.814949, -1.6789087, 1.1794349, -0.28655612, -0.0010652645, -1.144094
1565633694468, 8.8593, 3.9948928, -7.7359133, -1.6381935, 1.1808978, -0.28016454, 0.046871636, -1.1462245
1565633694477, 8.748044, 3.803291, -7.7143583, -1.5974782, 1.1729356, -0.27057716, 0.09054748, -1.1377025
1565633694478, 8.643103, 3.6979103, -7.6592727, -1.5376027, 1.1740718, -0.26738137, 0.12250541, -1.1366372
1565633694485, 8.528482, 3.4871485, -7.6353226, -1.5088624, 1.1591712, -0.25246766, 0.12996227, -1.123854
1565633694486, 8.481181, 3.3410523, -7.6233473, -1.6286134, 1.1449358, -0.24394555, 0.12996227, -1.1110709
1565633694495, 8.304914, 3.1255007, -7.5251517, -1.6046631, 1.1506675, -0.24714136, 0.128897, -1.1163971
1565633694496, 8.230166, 2.9865894, -7.4916215, -1.6405884, 1.1355205, -0.24074976, 0.11611383, -1.103614
1565633694506, 8.160371, 2.8931837, -7.438931, -1.698069, 1.1219404, -0.24181503, 0.12250541, -1.0887003
1565633694508, 8.058266, 2.7422974, -7.33355, -1.9064356, 1.1107134, -0.24714136, 0.12250541, -1.0759171
1565633694518, 8.013689, 2.5890162, -7.3551054, -1.8489552, 1.0962518, -0.26418558, 0.12357068, -1.0567423
1565633694519, 7.950376, 2.4333398, -7.340735, -1.8441651, 1.0741595, -0.27803403, 0.14061491, -1.0279802
1565633694527, 7.8376446, 2.2465284, -7.2664895, -1.8920655, 1.057563, -0.30146983, 0.15765914, -1.0013486
1565633694528, 7.8381877, 2.208208, -7.27128, -1.9208057, 1.0431072, -0.3089267, 0.16724652, -0.9821738
1565633694537, 7.8282847, 2.0621119, -7.3072047, -1.9064356, 1.0196968, -0.3270362, 0.18429075, -0.94808537
1565633694538, 7.7904162, 1.9998415, -7.2808595, -1.9184108, 1.000915, -0.34834146, 0.20772657, -0.9150622
1565633694548, 7.698928, 1.8561403, -7.2497244, -1.8082398, 0.9689376, -0.36432046, 0.21198763, -0.8724516
1565633694549, 7.730075, 1.8992506, -7.2976246, -1.7004639, 0.9420058, -0.3717773, 0.21518342, -0.8383631
1565633694558, 7.760036, 1.8657203, -7.3646855, -1.5807129, 0.9176485, -0.36325517, 0.23009712, -0.81066626
1565633694559, 7.700525, 1.9064356, -7.321575, -1.4346168, 0.884557, -0.37071204, 0.20879184, -0.7755125
1565633694568, 7.7547474, 1.8776954, -7.398216, -1.3699512, 0.8657894, -0.35579833, 0.21092236, -0.76059884
1565633694569, 7.7245574, 2.0166066, -7.359895, -1.1975098, 0.82712007, -0.34088463, 0.20026971, -0.72651035
1565633694578, 7.621438, 1.8130299, -7.335945, -0.9915381, 0.79836863, -0.32170987, 0.18322548, -0.7073356
1565633694580, 7.7346635, 1.8633252, -7.4509063, -0.9148975, 0.75430125, -0.29507825, 0.18535602, -0.6689861
1565633694586, 7.8425417, 1.8513502, -7.553892, -1.0083033, 0.7092726, -0.27696875, 0.1949434, -0.62317973
1565633694587, 7.9827385, 1.8106349, -7.695198, -1.1088941, 0.68189573, -0.257794, 0.20026971, -0.59867865
1565633694597, 7.9350634, 1.8154249, -7.664063, -0.9651929, 0.63024145, -0.23755397, 0.20240025, -0.5475459
1565633694598, 7.968245, 1.7699195, -7.699988, -1.0346485, 0.5933446, -0.221575, 0.21411815, -0.5070659
1565633694606, 8.036063, 1.8274, -7.7311234, -1.21188, 0.56268656, -0.21092236, 0.23329292, -0.46658584
1565633694609, 8.24967, 1.9734962, -7.8891945, -1.3867164, 0.52438504, -0.2066613, 0.24607609, -0.41438788
1565633694617, 8.352788, 2.1195924, -7.95865, -1.3915064, 0.49388075, -0.19068234, 0.25246766, -0.37923414
1565633694618, 8.58513, 2.2058132, -8.169412, -1.4489869, 0.47743222, -0.18429075, 0.2695119, -0.34834146
1565633694626, 8.802346, 2.44292, -8.286768, -1.6860938, 0.44769633, -0.15978967, 0.2876214, -0.30360037
1565633694627, 9.005432, 2.5985963, -8.449629, -1.7172291, 0.44696572, -0.15126756, 0.3174488, -0.2759035
1565633694636, 9.230704, 2.7710378, -8.617281, -1.8082398, 0.4474187, -0.14168017, 0.3472762, -0.24394555
1565633694637, 9.357925, 2.8548634, -8.686736, -1.9902613, 0.46992654, -0.13954964, 0.38775626, -0.22583607
1565633694650, 9.630192, 2.9051588, -8.921448, -2.1698878, 0.48267883, -0.13102753, 0.4250405, -0.18748654
1565633694651, 9.807643, 2.8859987, -9.036409, -2.4908204, 0.52324766, -0.14274544, 0.4857606, -0.13209279
1565633694657, 9.888841, 2.7087672, -9.15616, -2.572251, 0.556166, -0.14274544, 0.53263223, -0.07243799
1565633694659, 10.000016, 2.703977, -9.239985, -2.703977, 0.6004445, -0.15978967, 0.5784386, -0.020240024
1565633694669, 10.2141, 2.7375073, -9.431587, -2.806963, 0.6514943, -0.18002969, 0.62531024, 0.03195793
1565633694670, 10.325923, 2.7446926, -9.489068, -3.0081446, 0.7134099, -0.19813919, 0.6775082, 0.10333065
1565633694677, 10.381787, 2.811753, -9.587264, -2.8213332, 0.760651, -0.21411815, 0.7126619, 0.15765914
1565633694679, 10.372524, 2.811753, -9.618399, -2.6776319, 0.80625886, -0.20879184, 0.7499462, 0.20985709
1565633694688, 10.377867, 2.9865894, -9.637559, -2.42855, 0.8302081, -0.18429075, 0.7669904, 0.25885928
1565633694690, 10.4545355, 2.9985645, -9.75731, -2.2585034, 0.8402425, -0.16192019, 0.76485986, 0.30786142
1565633694698, 10.482159, 3.0943654, -9.800421, -2.0621119, 0.84495884, -0.12357068, 0.76272935, 0.34194988
1565633694700, 10.440118, 3.04407, -9.802815, -1.9064356, 0.8399643, -0.068176925, 0.7414241, 0.3888215
1565633694708, 10.41816, 3.173401, -9.77168, -1.7268091, 0.8316284, -0.004261058, 0.71479243, 0.4250405
1565633694710, 10.254228, 3.1015503, -9.649534, -1.5543678, 0.8241361, 0.06711166, 0.67005134, 0.47510794
1565633694720, 10.301606, 3.0847852, -9.718989, -1.465752, 0.82097685, 0.15233281, 0.62744075, 0.5070659
1565633694722, 10.369739, 3.1949563, -9.75252, -1.4873072, 0.84033704, 0.24927188, 0.58269966, 0.551807
1565633694729, 10.648169, 3.2596216, -9.970467, -1.829795, 0.8365535, 0.31851408, 0.5123922, 0.5795039
1565633694731, 10.941074, 3.432063, -10.152488, -2.203418, 0.86475396, 0.37284255, 0.47510794, 0.61891866
1565633694741, 11.494362, 3.5853443, -10.540482, -2.8572583, 0.896306, 0.43249738, 0.44208476, 0.6487461
1565633694743, 11.74163, 3.68354, -10.712923, -3.0871804, 0.9306059, 0.47404268, 0.42184472, 0.680704
1565633694749, 11.93835, 3.7218604, -10.739268, -3.652405, 0.96663934, 0.4889564, 0.4016047, 0.7307714
1565633694753, 12.229021, 3.7338357, -10.92608, -4.028423, 1.0123633, 0.4910869, 0.40906155, 0.7850999
1565633694759, 12.458144, 3.7266505, -10.99314, -4.524192, 1.059001, 0.49321744, 0.4101268, 0.8426242
1565633694769, 12.642791, 3.786526, -11.043435, -4.8523097, 1.1049278, 0.4708469, 0.4346279, 0.90014845
1565633694772, 12.85343, 3.8607717, -11.153606, -5.0894165, 1.1269647, 0.4293016, 0.4527374, 0.93849796
1565633694774, 13.174758, 4.054768, -11.254197, -5.52052, 1.1672771, 0.38775626, 0.46232477, 0.99921805
1565633694779, 13.538491, 4.0978785, -11.524835, -5.8031325, 1.2004075, 0.32384038, 0.4825648, 1.0503508
1565633694781, 13.679529, 4.1888895, -11.620635, -5.877378, 1.2268175, 0.25246766, 0.47510794, 1.1025487
1565633694790, 13.726875, 4.2200246, -11.649376, -5.9085135, 1.2550122, 0.18642128, 0.46019423, 1.1526161
1565633694792, 13.71362, 4.24637, -11.697276, -5.7624173, 1.3008785, 0.12250541, 0.44421527, 1.216532
1565633694801, 13.583991, 4.119434, -11.658956, -5.623506, 1.3513038, 0.08628642, 0.4133226, 1.2836437
1565633694803, 13.428178, 4.1793094, -11.670931, -5.1612673, 1.3958578, 0.06178534, 0.37816888, 1.3422332
1565633694811, 13.171617, 4.239185, -11.53202, -4.7469287, 1.4297024, 0.06178534, 0.30466563, 1.3954965
1565633694813, 12.780419, 4.3373804, -11.254197, -4.2272096, 1.4748158, 0.07563378, 0.25353295, 1.4508902
1565633694821, 12.50995, 4.4595265, -11.060201, -3.779341, 1.5051628, 0.11504856, 0.1768339, 1.490305
1565633694822, 12.366979, 4.737349, -10.859019, -3.547024, 1.5356747, 0.15978967, 0.094808534, 1.5243934
1565633694831, 12.08596, 4.967271, -10.566827, -3.1207106, 1.5385045, 0.21518342, 0.0127831735, 1.5233282
1565633694834, 11.805226, 5.127737, -10.236314, -2.8788135, 1.5699216, 0.28016454, -0.05965481, 1.5435683
1565633694840, 11.631155, 5.362449, -9.936936, -2.7901978, 1.5910655, 0.350472, -0.13954964, 1.5456988
1565633694842, 11.295367, 5.455855, -9.536968, -2.6201515, 1.6080663, 0.4165184, -0.19068234, 1.5414376
1565633694850, 11.196479, 5.7983427, -9.254355, -2.4692652, 1.6350064, 0.49002165, -0.2247708, 1.5435683
1565633694852, 11.0686455, 6.07856, -8.851993, -2.684817, 1.639467, 0.56245965, -0.2396845, 1.5211977
1565633694860, 10.946489, 6.303692, -8.473579, -2.8788135, 1.6249352, 0.6103965, -0.25033715, 1.4849787
1565633694862, 10.952426, 6.5407987, -8.217313, -3.1063404, 1.6037778, 0.660464, -0.24820662, 1.4402375
1565633694870, 10.920355, 6.7635355, -7.8868, -3.3626075, 1.5712756, 0.67537767, -0.23755397, 1.3986923
1565633694872, 11.081255, 7.046148, -7.7071733, -3.7074904, 1.5159949, 0.6743124, -0.2247708, 1.3390374
1565633694882, 11.205905, 7.209009, -7.551497, -4.071533, 1.4502882, 0.64768076, -0.19707392, 1.2825783
1565633694885, 11.324699, 7.2976246, -7.3958206, -4.505032, 1.3780758, 0.61891866, -0.17576863, 1.2186625
1565633694891, 11.485954, 7.350315, -7.321575, -4.9289503, 1.2727629, 0.5496765, -0.14487597, 1.1387677
1565633694894, 11.56589, 7.3455253, -7.197034, -5.2929935, 1.1857164, 0.45912898, -0.12037488, 1.0865698
1565633694900, 11.72326, 7.2497244, -7.151529, -5.807923, 1.0871681, 0.34408042, -0.094808534, 1.026915
1565633694902, 11.771855, 7.1874537, -7.1299734, -6.006709, 1.0100487, 0.21731395, -0.07882957, 0.9832391
1565633694910, 11.751716, 7.1156034, -7.1323686, -6.0498195, 0.9383003, 0.07669904, -0.041545313, 0.93423694
1565633694912, 11.894272, 7.0198026, -7.2760696, -6.2653713, 0.88166386, -0.053263225, -0.015978966, 0.87990844
1565633694920, 11.86818, 7.1227884, -7.424561, -5.9156985, 0.8539848, -0.17789917, 0.011717909, 0.83516735
1565633694922, 11.797899, 6.9862723, -7.5706573, -5.750442, 0.8312709, -0.29933932, 0.040480047, 0.77444726
1565633694930, 11.721314, 7.0293827, -7.7646537, -5.261858, 0.82156754, -0.3920173, 0.05219796, 0.72011876
1565633694931, 11.672957, 6.959927, -8.032896, -4.8259645, 0.827609, -0.47297743, 0.07137272, 0.67537767
1565633694939, 11.612145, 6.950347, -8.207732, -4.378096, 0.82686, -0.535828, 0.083090626, 0.624245
1565633694942, 11.555871, 6.935977, -8.468789, -3.7027004, 0.8113386, -0.5699165, 0.08628642, 0.57098174
1565633694950, 11.493969, 6.8928666, -8.598121, -3.2668068, 0.79377353, -0.5773733, 0.098004326, 0.535828
1565633694951, 11.438578, 6.8186207, -8.753797, -2.7782228, 0.7670873, -0.58483016, 0.096939065, 0.48682585
1565633694963, 11.407754, 6.686895, -8.957374, -2.2776637, 0.7210306, -0.55287224, 0.12996227, 0.44421527
1565633694965, 11.333281, 6.70845, -8.911868, -2.0046315, 0.68174267, -0.52411014, 0.16192019, 0.4048005
1565633694970, 11.214678, 6.5000834, -8.983719, -1.6765138, 0.6454843, -0.48469532, 0.2066613, 0.37284255
1565633694972, 11.04676, 6.346802, -8.933423, -1.3939015, 0.62100995, -0.43569317, 0.26312032, 0.35579833
1565633694984, 10.931549, 6.1575956, -8.952583, -1.1975098, 0.5985943, -0.37816888, 0.3270362, 0.3291667
1565633694986, 10.661666, 5.910908, -8.808882, -1.0657837, 0.604816, -0.32170987, 0.39414784, 0.3270362
1565633694993, 10.507693, 5.738467, -8.746612, -0.98914313, 0.6204322, -0.25885928, 0.46232477, 0.32277513
1565633694995, 10.352066, 5.48699, -8.725057, -0.9651929, 0.6518696, -0.20772657, 0.53263223, 0.31318775
1565633695001, 10.119474, 5.295388, -8.5502205, -1.1208692, 0.6911572, -0.15978967, 0.5933523, 0.31638354
1565633695004, 9.789114, 5.0750465, -8.289163, -1.1663746, 0.7368127, -0.113983296, 0.65194184, 0.32384038
1565633695012, 9.514955, 4.9433208, -8.011341, -1.3843213, 0.7682204, -0.09374327, 0.69029135, 0.32384038
1565633695014, 9.388551, 4.7804594, -7.92991, -1.5519727, 0.79932684, -0.080960095, 0.7286409, 0.31851408
1565633695024, 9.2212925, 4.727769, -7.697593, -1.8513502, 0.8221475, -0.07882957, 0.7595336, 0.30466563
1565633695026, 8.975712, 4.5888577, -7.424561, -2.0932472, 0.85001564, -0.0777643, 0.79255676, 0.2972088
1565633695032, 8.836257, 4.4379716, -7.311995, -2.2177882, 0.87143975, -0.094808534, 0.8159926, 0.2908172
1565633695034, 8.600057, 4.2439747, -7.110813, -2.320774, 0.87893355, -0.11611383, 0.8223842, 0.2876214
1565633695042, 8.384876, 3.9422023, -7.0102224, -2.3710694, 0.89140993, -0.13635385, 0.83729786, 0.27377295
1565633695044, 8.303146, 3.791316, -6.983877, -2.4069948, 0.8897662, -0.15659387, 0.8330368, 0.27057716
1565633695055, 8.072266, 3.5206788, -6.821016, -2.4980054, 0.90083337, -0.1768339, 0.83516735, 0.2876214
1565633695058, 7.8489733, 3.3314724, -6.6773148, -2.4333398, 0.88761204, -0.2034655, 0.8127968, 0.29294774
1565633695062, 7.70901, 3.0728102, -6.672525, -2.3375392, 0.88918895, -0.21944448, 0.80107886, 0.3174488
1565633695064, 7.625358, 2.8907888, -6.6509695, -2.3566992, 0.88573843, -0.23755397, 0.78083885, 0.34408042
1565633695075, 7.496845, 2.663262, -6.6773148, -2.1267774, 0.87596095, -0.23009712, 0.76059884, 0.3685815
1565633695077, 7.400305, 2.4836354, -6.67013, -2.0261867, 0.86869687, -0.23222765, 0.7350325, 0.40053943
1565633695082, 7.2144437, 2.3590944, -6.5360084, -1.9399658, 0.8580413, -0.20985709, 0.7041398, 0.44315
1565633695085, 7.0852485, 2.1603076, -6.5096636, -1.7771046, 0.8513856, -0.20240025, 0.67537767, 0.47723848
1565633695092, 7.0774255, 2.1171973, -6.557564, -1.6142433, 0.84637594, -0.1768339, 0.6423545, 0.5219796
1565633695096, 6.9739532, 2.0046315, -6.5216384, -1.4441968, 0.8224352, -0.14594123, 0.6018744, 0.5411543
1565633695103, 7.0478935, 2.1243825, -6.595884, -1.2861255, 0.80111146, -0.12037488, 0.5432849, 0.5763081
1565633695105, 7.105821, 2.184258, -6.6557593, -1.1927198, 0.7945659, -0.080960095, 0.4889564, 0.62104917
1565633695115, 7.1220303, 2.2680836, -6.6509695, -1.1591895, 0.7766749, -0.041545313, 0.4282363, 0.6466155
1565633695116, 7.2453356, 2.3255641, -6.7874856, -1.0083033, 0.766251, 0.0031957934, 0.35792887, 0.6775082
1565633695125, 7.2648396, 2.3830445, -6.7683253, -1.1352394, 0.7611306, 0.04474111, 0.28549087, 0.7041398
1565633695126, 7.3618374, 2.5315359, -6.821016, -1.1232642, 0.7799642, 0.096939065, 0.21092236, 0.74461985
1565633695137, 7.5289373, 2.7710378, -6.8665214, -1.3627661, 0.78360033, 0.12783173, 0.13848437, 0.76059884
1565633695139, 7.6457167, 2.9602442, -6.9048414, -1.4202466, 0.80837077, 0.17257284, 0.0628506, 0.78723043
1565633695143, 7.802871, 3.1183155, -6.983877, -1.5447876, 0.82605267, 0.19281286, -0.0063915867, 0.8032094
1565633695145, 7.825227, 3.283572, -6.8880763, -1.7339942, 0.8501665, 0.221575, -0.066046394, 0.8181231
1565633695156, 7.907125, 3.422483, -6.8904715, -1.8250049, 0.86249715, 0.24394555, -0.10759171, 0.8202536
1565633695158, 8.047619, 3.6859353, -6.854546, -2.047742, 0.8848405, 0.25992453, -0.15233281, 0.8319715
1565633695163, 8.216917, 3.9853127, -6.844966, -2.186653, 0.89610523, 0.26631612, -0.18109496, 0.8362326
1565633695165, 8.333389, 4.1960745, -6.809041, -2.339934, 0.90248775, 0.27057716, -0.19600865, 0.8383631
1565633695176, 8.344313, 4.282295, -6.7467704, -2.4022048, 0.9139218, 0.28016454, -0.20772657, 0.8447547
1565633695178, 8.300045, 4.394861, -6.6365995, -2.3519094, 0.91948676, 0.29933932, -0.20985709, 0.84368944
1565633695184, 8.270369, 4.4643164, -6.5264287, -2.42376, 0.9246232, 0.3110572, -0.21944448, 0.8426242
1565633695187, 8.318887, 4.615203, -6.4593678, -2.4860303, 0.9296555, 0.32810146, -0.22796659, 0.83942837
1565633695196, 8.545952, 4.8834453, -6.5216384, -2.579436, 0.9292508, 0.33768883, -0.22796659, 0.83516735
1565633695198, 8.737077, 5.0582814, -6.583909, -2.7207422, 0.9058851, 0.32490566, -0.23329292, 0.8127968
1565633695204, 8.868445, 5.237908, -6.569539, -2.8380983, 0.89445055, 0.3355583, -0.25033715, 0.79042625
1565633695207, 9.317407, 5.5157304, -6.8497562, -3.0776002, 0.8687609, 0.31957933, -0.26312032, 0.7637946
1565633695214, 9.612606, 5.760022, -6.962322, -3.278782, 0.838807, 0.3110572, -0.2727077, 0.72970617
1565633695216, 9.819793, 5.9013286, -7.1299734, -3.2811768, 0.8197818, 0.29933932, -0.28655612, 0.7073356
1565633695224, 10.096728, 5.9875493, -7.3742657, -3.422483, 0.7876549, 0.28229508, -0.2908172, 0.67537767
1565633695226, 10.383304, 6.236631, -7.573052, -3.4009278, 0.76382804, 0.2695119, -0.3089267, 0.644485
1565633695234, 10.697145, 6.344407, -7.8772197, -3.4823585, 0.7523098, 0.26738137, -0.31957933, 0.6263755
1565633695236, 10.929923, 6.543194, -8.066426, -3.403323, 0.7465293, 0.25353295, -0.3355583, 0.61678815
1565633695243, 11.276089, 6.696475, -8.418494, -3.3817677, 0.72147113, 0.25246766, -0.3387541, 0.58483016
1565633695245, 11.489221, 6.9216065, -8.5502205, -3.3147073, 0.7104811, 0.26738137, -0.34194988, 0.56245965
1565633695254, 11.768924, 7.1419487, -8.763377, -3.271597, 0.6995195, 0.2876214, -0.3355583, 0.5422196
1565633695255, 11.95875, 7.3551054, -8.8879175, -3.1494508, 0.68733335, 0.29827404, -0.32810146, 0.5251754
1565633695263, 12.130485, 7.537127, -8.966953, -3.151846, 0.67237514, 0.32490566, -0.31638354, 0.49641323
1565633695267, 12.347453, 7.7407036, -9.096285, -3.1302907, 0.6554606, 0.3472762, -0.2972088, 0.46978164
1565633695278, 12.545844, 7.927515, -9.17053, -3.2332766, 0.63891006, 0.37284255, -0.28336033, 0.4346279
1565633695279, 12.562325, 8.011341, -9.16574, -3.1015503, 0.6239077, 0.39521313, -0.26631612, 0.40266997
1565633695288, 12.619091, 8.145462, -9.110655, -3.1446607, 0.6064312, 0.41545314, -0.2514024, 0.36325517
1565633695289, 12.737536, 8.186177, -9.144185, -3.408113, 0.5727488, 0.41971418, -0.22903186, 0.3153183
1565633695298, 12.901094, 8.428074, -9.1202345, -3.4967287, 0.54454607, 0.4261058, -0.20985709, 0.26631612
1565633695300, 12.9710655, 8.52627, -9.079519, -3.6212697, 0.5054554, 0.41225734, -0.19920446, 0.21411815
1565633695305, 13.092316, 8.669971, -9.045989, -3.796106, 0.45667306, 0.4079963, -0.15233281, 0.13741912
1565633695306, 13.04262, 8.698711, -8.921448, -3.8535867, 0.40739647, 0.37603834, -0.14061491, 0.06924219
1565633695317, 13.131355, 8.780142, -8.921448, -3.9685476, 0.3675857, 0.35473305, -0.0958738, -0.00958738
1565633695319, 13.387962, 8.969349, -9.038804, -4.133804, 0.343164, 0.32597092, -0.060720075, -0.08841695
1565633695326, 13.524456, 8.904683, -9.256751, -4.2343946, 0.35023394, 0.2972088, -0.01917476, -0.18429075
1565633695329, 13.637572, 8.816068, -9.479487, -4.28948, 0.36838597, 0.26312032, 0.004261058, -0.257794
1565633695337, 13.636533, 8.523875, -9.711804, -4.3565407, 0.39166257, 0.23329292, 0.039414786, -0.3121225
1565633695339, 13.522774, 8.1071415, -9.920172, -4.3278003, 0.4198453, 0.21518342, 0.051132694, -0.3568636
1565633695346, 13.465108, 7.798184, -10.066268, -4.378096, 0.43027848, 0.1736381, 0.036218993, -0.3920173
1565633695348, 13.4735565, 7.568262, -10.248289, -4.385281, 0.43812943, 0.15126756, 0.051132694, -0.4079963
1565633695358, 13.541809, 7.31439, -10.480606, -4.4762917, 0.42894194, 0.094808534, 0.049002163, -0.41545314
1565633695360, 13.749896, 7.31439, -10.732083, -4.514612, 0.4322743, 0.05965481, 0.02876214, -0.42717105
1565633695366, 13.900286, 7.1467385, -11.053016, -4.4691067, 0.41969392, 0.014913702, 0.025566347, -0.41864893
1565633695368, 14.184132, 7.2832546, -11.321258, -4.4691067, 0.41566205, -0.027696876, 0.017044231, -0.41438788
1565633695378, 14.364175, 7.2114043, -11.57992, -4.497847, 0.41514573, -0.0628506, 0.013848438, -0.4101268
1565633695380, 14.517913, 7.33355, -11.817027, -4.164939, 0.42109218, -0.09054748, 0.0063915867, -0.4111921
1565633695386, 14.637509, 7.453301, -11.984678, -3.8823268, 0.41046008, -0.10226539, -0.011717909, -0.39734364
1565633695388, 14.608646, 7.4988065, -12.049344, -3.4631984, 0.4069896, -0.099069595, -0.036218993, -0.3930826
1565633695396, 14.782811, 7.5970025, -12.284056, -3.1494508, 0.40978357, -0.08841695, -0.05539375, -0.39627838
1565633695407, 14.77261, 7.790999, -12.226575, -2.8357031, 0.42283887, -0.05539375, -0.09161274, -0.40906155
1565633695409, 14.854159, 8.040081, -12.212205, -2.6201515, 0.43974397, -0.036218993, -0.12250541, -0.42077947
1565633695410, 14.779625, 8.188572, -12.063714, -2.4189699, 0.4918708, 0.0, -0.16192019, -0.4644553
1565633695419, 14.666382, 8.363408, -11.845767, -2.198628, 0.5431188, 0.043675844, -0.18961707, -0.5070659
1565633695421, 14.544613, 8.576566, -11.591895, -1.9016455, 0.60254526, 0.07989483, -0.2066613, -0.5603291
1565633695427, 14.345975, 8.746612, -11.218272, -1.8585353, 0.67639095, 0.12250541, -0.22690132, -0.62531024
1565633695429, 14.141521, 8.681946, -11.038646, -1.6597486, 0.7538882, 0.17044231, -0.23222765, -0.69668293
1565633695439, 13.620444, 8.401729, -10.614727, -1.5016773, 0.82721406, 0.20985709, -0.22796659, -0.7669904
1565633695441, 13.286124, 8.329878, -10.243499, -1.4849122, 0.91889477, 0.2609898, -0.23542345, -0.8490158
1565633695447, 12.94062, 8.066426, -9.992022, -1.5974782, 0.9870686, 0.294013, -0.2247708, -0.9150622
1565633695449, 12.496763, 7.767049, -9.616004, -1.8369801, 1.0528699, 0.3153183, -0.22050974, -0.9800433
1565633695457, 12.226052, 7.553892, -9.410032, -1.9663111, 1.103002, 0.3291667, -0.21198763, -1.031176
1565633695460, 11.88469, 7.31439, -9.12263, -2.1267774, 1.1669062, 0.330232, -0.20985709, -1.099353
1565633695469, 11.52597, 7.0269876, -8.851993, -2.2608986, 1.2175883, 0.3174488, -0.21411815, -1.1558119
1565633695471, 11.326475, 6.7707205, -8.717872, -2.5387208, 1.2697402, 0.294013, -0.21411815, -1.216532
1565633695478, 11.107256, 6.447393, -8.614885, -2.7542725, 1.3085701, 0.2727077, -0.21092236, -1.2623384
1565633695480, 10.829938, 6.08814, -8.495134, -2.8380983, 1.3499894, 0.24927188, -0.21518342, -1.3092101
1565633695489, 10.583917, 5.6761966, -8.440049, -2.926714, 1.3866172, 0.2247708, -0.2247708, -1.3496901
1565633695491, 10.361567, 5.271438, -8.384964, -3.04407, 1.4154775, 0.19281286, -0.2396845, -1.381648
1565633695497, 10.231699, 4.744534, -8.5430355, -3.032095, 1.4215841, 0.16724652, -0.26312032, -1.3869743
1565633695499, 10.0125885, 4.3134303, -8.490345, -3.0919704, 1.4257032, 0.13635385, -0.27483824, -1.3923006
1565633695510, 9.978209, 3.9637575, -8.586145, -3.182981, 1.402334, 0.10759171, -0.30466563, -1.3646038
1565633695512, 9.881685, 3.6045046, -8.62207, -3.2117214, 1.3892131, 0.07456851, -0.32490566, -1.3486248
1565633695517, 9.855189, 3.3530276, -8.672366, -3.2668068, 1.3627106, 0.0479369, -0.36751625, -1.3113406
1565633695519, 9.886071, 3.2404616, -8.772957, -3.2045362, 1.3410811, 0.014913702, -0.39840892, -1.2804478
1565633695527, 9.896163, 3.0871804, -8.837623, -3.2093263, 1.3140239, -0.03195793, -0.43675843, -1.2389026
1565633695530, 9.92222, 3.0201197, -8.844808, -3.3314724, 1.3114067, -0.07350325, -0.48149952, -1.2175972
1565633695537, 10.110922, 3.173401, -8.998089, -3.3458424, 1.3033292, -0.12463594, -0.51452273, -1.1909657
1565633695538, 10.070587, 3.1614258, -9.022039, -3.166216, 1.3042288, -0.15978967, -0.572047, -1.1611383
1565633695547, 10.102972, 3.187771, -9.105865, -2.9985645, 1.2968789, -0.19600865, -0.61678815, -1.123854
1565633695548, 9.990829, 3.2692018, -9.06994, -2.6201515, 1.3056723, -0.22583607, -0.6689861, -1.0982877
1565633695557, 10.130762, 3.412903, -9.22801, -2.4141798, 1.3232806, -0.24394555, -0.71479243, -1.0865698
1565633695558, 10.093598, 3.530259, -9.175321, -2.2872438, 1.3270674, -0.2545982, -0.74781567, -1.0663297
1565633695567, 10.082769, 3.6092947, -9.172925, -2.1195924, 1.3302459, -0.27377295, -0.7861652, -1.0375676
1565633695570, 9.981901, 3.788921, -9.022039, -1.9711012, 1.3399185, -0.2876214, -0.79894835, -1.0365024
1565633695580, 9.997248, 3.9589674, -8.993299, -1.84177, 1.3446068, -0.30466563, -0.8181231, -1.0226538
1565633695581, 9.958989, 4.0356083, -8.962164, -1.6046631, 1.3607197, -0.30679616, -0.81705785, -1.0439591
1565633695590, 9.934158, 4.24158, -8.847202, -1.5567628, 1.3519456, -0.32490566, -0.8021441, -1.0386329
1565633695592, 9.877356, 4.394861, -8.744217, -1.336421, 1.3526237, -0.314253, -0.793622, -1.0492855
1565633695598, 9.735298, 4.521797, -8.53585, -1.21188, 1.3556277, -0.3153183, -0.7797736, -1.063134
1565633695599, 9.75478, 4.526587, -8.566985, -1.1280543, 1.3414878, -0.3153183, -0.7350325, -1.0769824
1565633695608, 9.662876, 4.6583133, -8.389753, -1.1328443, 1.3494219, -0.31638354, -0.7041398, -1.1068097
1565633695609, 9.621359, 4.6678934, -8.356223, -0.977168, 1.3481463, -0.30786142, -0.66365975, -1.1323761
1565633695624, 9.493915, 4.505032, -8.303533, -0.9436377, 1.3343384, -0.30146983, -0.61891866, -1.1430287
1565633695626, 9.423826, 4.409231, -8.274793, -0.94603276, 1.3110294, -0.28229508, -0.55287224, -1.1547467
1565633695628, 9.30807, 4.3086405, -8.176597, -1.104104, 1.3052608, -0.28442562, -0.49215218, -1.1749867
1565633695630, 9.139367, 4.24637, -8.032896, -0.98435307, 1.2855355, -0.2790993, -0.4261058, -1.180313
1565633695642, 8.951051, 3.9613624, -7.9682302, -0.96758795, 1.2619823, -0.28122982, -0.36112466, -1.176052
1565633695645, 8.869077, 3.8655617, -7.9059596, -1.101709, 1.2525992, -0.28336033, -0.31318775, -1.1792477
1565633695649, 8.818628, 3.671565, -7.92512, -1.2166699, 1.2477016, -0.28229508, -0.25246766, -1.1888351
1565633695651, 8.673327, 3.6452198, -7.781419, -1.1783496, 1.2217209, -0.28975195, -0.18855181, -1.171791
1565633695661, 8.624929, 3.542234, -7.776629, -1.1687696, 1.2187138, -0.29188246, -0.13954964, -1.1749867
1565633695663, 8.444007, 3.3266823, -7.6353226, -1.3915064, 1.2055396, -0.28016454, -0.082025364, -1.1696603
1565633695673, 8.349099, 3.180586, -7.592212, -1.3962965, 1.196844, -0.29188246, -0.03834952, -1.160073
1565633695675, 8.26737, 3.0847852, -7.527547, -1.4729371, 1.1996188, -0.29294774, 0.008522116, -1.1632688
1565633695679, 8.168925, 2.811753, -7.5035963, -1.587898, 1.1638929, -0.30679616, 0.068176925, -1.1206582
1565633695681, 8.028106, 2.562671, -7.398216, -1.7747096, 1.1632142, -0.32384038, 0.10652645, -1.1121361
1565633695689, 7.917397, 2.4501052, -7.30481, -1.8226099, 1.1433836, -0.34301516, 0.15126756, -1.0801781
1565633695691, 7.894255, 2.3686745, -7.3096, -1.8106349, 1.1312356, -0.37284255, 0.19920446, -1.0492855
1565633695699, 7.920943, 2.2848487, -7.32876, -1.951941, 1.111584, -0.40266997, 0.22690132, -1.010936
1565633695706, 7.869548, 2.189048, -7.3000197, -1.961521, 1.118413, -0.42717105, 0.26844665, -0.9981528
1565633695709, 7.909037, 2.1387525, -7.34313, -2.0142114, 1.115137, -0.45060685, 0.2972088, -0.9757822
1565633695711, 7.9368734, 2.1028273, -7.3455253, -2.1483326, 1.1189892, -0.4825648, 0.31957933, -0.9576728
1565633695722, 7.8486032, 2.1387525, -7.2904396, -1.9687061, 1.1152469, -0.51026165, 0.3355583, -0.9331717
1565633695724, 8.067161, 2.1004322, -7.5155716, -2.0453467, 1.1144927, -0.5496765, 0.34088463, -0.9076053
1565633695731, 7.9952493, 2.1052222, -7.446116, -2.0118165, 1.1196578, -0.5773733, 0.34301516, -0.89588743
1565633695733, 8.0928, 2.090852, -7.5874224, -1.8848804, 1.114764, -0.60933125, 0.34301516, -0.8681905
1565633695742, 8.0545, 2.1171973, -7.580237, -1.7124391, 1.1014268, -0.61678815, 0.33449304, -0.8490158
1565633695744, 8.152655, 2.0237916, -7.7287283, -1.6238233, 1.0909644, -0.6263755, 0.31957933, -0.8341021
1565633695750, 8.19371, 1.9926564, -7.824529, -1.3939015, 1.0865891, -0.6412892, 0.31638354, -0.8181231
1565633695753, 8.215928, 2.1004322, -7.8365045, -1.2957057, 1.0669106, -0.6466155, 0.31957933, -0.7861652
1565633695762, 8.194301, 2.0070264, -7.8652444, -1.1208692, 1.0656435, -0.6583334, 0.3174488, -0.7755125
1565633695765, 8.263453, 2.1052222, -7.9083548, -1.1448194, 1.0335262, -0.64768076, 0.31957933, -0.7392935
1565633695771, 8.284333, 1.8154249, -8.025711, -0.96040285, 1.0041195, -0.6306366, 0.32277513, -0.71159667
1565633695773, 8.40869, 1.7268091, -8.178992, -0.91010743, 0.9702361, -0.61891866, 0.34940675, -0.660464
1565633695783, 8.544611, 1.7148341, -8.339458, -0.7232959, 0.9245471, -0.59228706, 0.37816888, -0.60080916
1565633695785, 8.599018, 1.705254, -8.396939, -0.72569096, 0.87416226, -0.5613944, 0.38775626, -0.54648066
1565633695791, 8.704875, 1.6884888, -8.514295, -0.6562354, 0.8272168, -0.5187838, 0.4133226, -0.49428272
1565633695794, 8.93956, 1.7268091, -8.746612, -0.6562354, 0.7940481, -0.49428272, 0.44208476, -0.43675843
1565633695800, 9.112804, 1.7699195, -8.914263, -0.6682105, 0.771453, -0.46871635, 0.48043427, -0.38029942
1565633695803, 9.195161, 1.7459693, -8.995694, -0.76161623, 0.7542479, -0.4293016, 0.51665324, -0.34301516
1565633695810, 9.281537, 1.7507594, -9.074729, -0.855022, 0.7451203, -0.4016047, 0.5539375, -0.29507825
1565633695812, 9.360811, 1.9375709, -9.10347, -0.9987232, 0.7377454, -0.37923414, 0.58696073, -0.23648871
1565633695820, 9.537228, 1.8130299, -9.285491, -1.2046949, 0.75564504, -0.3685815, 0.6327671, -0.18642128
1565633695822, 9.716338, 1.9232007, -9.429193, -1.341211, 0.77336514, -0.3717773, 0.664725, -0.13422333
1565633695830, 9.883309, 1.9160157, -9.577683, -1.5088624, 0.78137636, -0.38029942, 0.6775082, -0.083090626
1565633695832, 9.974864, 1.8992506, -9.666299, -1.5663428, 0.8072413, -0.37603834, 0.7137272, -0.02876214
1565633695840, 10.005178, 1.7363893, -9.72378, -1.5926881, 0.8088641, -0.37390783, 0.71585774, 0.04474111
1565633695842, 9.993297, 1.7914747, -9.726174, -1.4346168, 0.82347083, -0.36432046, 0.7307714, 0.10652645
1565633695850, 10.14221, 1.7747096, -9.896221, -1.334026, 0.8367874, -0.35899413, 0.74035877, 0.15233281
1565633695852, 10.131331, 1.6405884, -9.912986, -1.2981006, 0.83391976, -0.3174488, 0.7414241, 0.21198763
1565633695860, 10.32469, 1.6860938, -10.106983, -1.2669654, 0.83346516, -0.294013, 0.7286409, 0.27803403
1565633695861, 10.304793, 1.7747096, -10.083033, -1.1711646, 0.8274671, -0.2609898, 0.70840085, 0.3387541
1565633695870, 10.334329, 1.7124391, -10.126143, -1.1520045, 0.83398306, -0.221575, 0.69774824, 0.39947417
1565633695871, 10.35376, 1.7603394, -10.123748, -1.2693604, 0.8380958, -0.17789917, 0.67963874, 0.45699844
1565633695881, 10.314504, 1.8058448, -10.075848, -1.2669654, 0.8528365, -0.12463594, 0.66365975, 0.5209143
1565633695882, 10.404332, 1.8800904, -10.157278, -1.2430152, 0.878017, -0.07243799, 0.6508766, 0.58483016
1565633695891, 10.403999, 1.9160157, -10.130933, -1.3915064, 0.89659834, -0.017044231, 0.6263755, 0.6412892
1565633695892, 10.6546335, 2.0525317, -10.33451, -1.583108, 0.91558844, 0.0479369, 0.60080916, 0.6892261
1565633695901, 11.007632, 2.2920337, -10.588382, -1.949546, 0.92519796, 0.066046394, 0.5784386, 0.7190535
1565633695902, 11.346951, 2.4572902, -10.837463, -2.2944288, 0.95913744, 0.101200126, 0.55074173, 0.77870834
1565633695915, 11.64397, 2.5890162, -11.03625, -2.6608667, 0.9952204, 0.111852765, 0.5411543, 0.8277105
1565633695917, 11.911207, 2.6153615, -11.194322, -3.1183155, 1.028201, 0.1107875, 0.51665324, 0.88203895
1565633695925, 12.265045, 2.6656568, -11.441009, -3.5254688, 1.0766262, 0.0958738, 0.5070659, 0.94488955
1565633695926, 12.502469, 2.6417067, -11.591895, -3.8679566, 1.1135336, 0.068176925, 0.49534798, 0.99495703
1565633695936, 12.786813, 2.7901978, -11.745176, -4.2152348, 1.1808196, 0.037284255, 0.49215218, 1.0727214
1565633695938, 12.95728, 2.8309133, -11.850557, -4.409231, 1.2417247, -0.0053263223, 0.49747851, 1.1377025
1565633695942, 13.402985, 2.9578493, -12.2433405, -4.5816727, 1.3005204, -0.043675844, 0.5006743, 1.1994878
1565633695945, 13.526168, 3.051255, -12.360697, -4.567302, 1.356379, -0.09161274, 0.479369, 1.2655342
1565633695952, 13.647528, 3.06323, -12.504397, -4.528982, 1.418882, -0.13315806, 0.46552056, 1.3337111
1565633695955, 13.626111, 2.9913795, -12.557088, -4.3637257, 1.4653745, -0.15659387, 0.4293016, 1.3923006
1565633695965, 13.474206, 2.9674294, -12.511582, -4.026028, 1.5303706, -0.18216023, 0.38029942, 1.4711303
1565633695967, 13.236537, 2.8692336, -12.410992, -3.5973196, 1.5953484, -0.17896444, 0.33768883, 1.5488945
1565633695972, 13.06267, 2.9219239, -12.3487215, -3.0991554, 1.6604207, -0.15446335, 0.27696875, 1.6298546
1565633695975, 12.882682, 3.163821, -12.17628, -2.7734327, 1.7165384, -0.12463594, 0.20985709, 1.6990968
1565633695982, 12.935162, 3.3578174, -12.245735, -2.4668703, 1.7612532, -0.07882957, 0.14594123, 1.7534252
1565633695988, 12.794945, 3.5182838, -12.09485, -2.2465284, 1.7996079, -0.035153728, 0.0628506, 1.7981664
1565633695994, 12.568258, 3.7074904, -11.860137, -1.8848804, 1.848978, 0.0479369, -0.02130529, 1.8482338
1565633695996, 12.249303, 3.755391, -11.534414, -1.7028589, 1.9023515, 0.11504856, -0.101200126, 1.8961707
1565633696002, 11.972574, 3.9733377, -11.189531, -1.5328126, 1.9533633, 0.18961707, -0.18216023, 1.9355855
1565633696004, 11.748446, 4.29427, -10.827884, -1.5304176, 1.9980003, 0.25885928, -0.24074976, 1.9664782
1565633696012, 11.509548, 4.617598, -10.418335, -1.6142433, 2.0332572, 0.34301516, -0.28655612, 1.9835224
1565633696014, 11.343943, 4.8523097, -10.1189575, -1.6573536, 2.063658, 0.39840892, -0.3323625, 1.9973708
1565633696025, 11.129834, 5.0894165, -9.707015, -1.9351759, 2.0890367, 0.44528055, -0.3536678, 2.010154
1565633696027, 11.071404, 5.2834134, -9.501043, -2.095642, 2.0970228, 0.4857606, -0.37710363, 2.0048277
1565633696033, 11.072181, 5.625901, -9.223221, -2.42376, 2.0929577, 0.50600064, -0.39521313, 1.9920446
1565633696035, 11.062713, 5.968389, -8.921448, -2.6776319, 2.0778322, 0.5305017, -0.40586576, 1.9675435
1565633696043, 11.148879, 6.1695704, -8.796907, -2.9746144, 2.0472548, 0.53476274, -0.41864893, 1.9313245
1565633696045, 11.331003, 6.4593678, -8.713081, -3.278782, 2.0002532, 0.5230448, -0.4293016, 1.8823223
1565633696056, 11.418184, 6.6533647, -8.58854, -3.5134938, 1.9606081, 0.50813115, -0.44421527, 1.8407769
1565633696058, 11.6247425, 6.8689165, -8.509504, -3.9422023, 1.8923384, 0.4825648, -0.43249738, 1.7779263
1565633696065, 11.835099, 7.0198026, -8.502319, -4.3014555, 1.8326864, 0.4346279, -0.4250405, 1.7289242
1565633696067, 12.098674, 7.3000197, -8.48316, -4.5960426, 1.7498356, 0.37071204, -0.4165184, 1.6586168
1565633696074, 12.221643, 7.414981, -8.449629, -4.7948294, 1.6786462, 0.30360037, -0.406931, 1.6000272
1565633696076, 12.323339, 7.4940166, -8.4448395, -4.9385304, 1.5973433, 0.2247708, -0.38456047, 1.5339808
1565633696083, 12.3761635, 7.462881, -8.50711, -5.010381, 1.5213904, 0.15339808, -0.3472762, 1.4732608
1565633696086, 12.428916, 7.5467067, -8.514295, -5.0031962, 1.4455403, 0.07243799, -0.31318775, 1.4093449
1565633696094, 12.43756, 7.5251517, -8.576566, -4.9505057, 1.3728238, -0.007456851, -0.26205507, 1.3475596
1565633696096, 12.262778, 7.455696, -8.533455, -4.687053, 1.3162729, -0.07350325, -0.22796659, 1.2942963
1565633696103, 12.389732, 7.5012016, -8.775352, -4.497847, 1.2603564, -0.13102753, -0.16085494, 1.2431636
1565633696105, 12.098404, 7.2760696, -8.813672, -3.9685476, 1.2260547, -0.16618125, -0.11717909, 1.2090752
1565633696114, 12.069917, 7.223379, -8.935819, -3.6955154, 1.1828316, -0.20026971, -0.05752428, 1.164334
1565633696115, 11.911041, 7.151529, -8.911868, -3.3626075, 1.1524659, -0.21411815, -0.007456851, 1.1323761
1565633696124, 11.860718, 7.0413575, -9.048384, -3.0368848, 1.1289079, -0.21411815, 0.05965481, 1.1068097
1565633696128, 11.699249, 6.8856816, -9.029224, -2.816543, 1.1114573, -0.21411815, 0.11611383, 1.0844392
1565633696137, 11.652186, 6.828201, -9.091495, -2.548301, 1.0865808, -0.20559604, 0.18748654, 1.0503508
1565633696139, 11.290537, 6.7324004, -8.775352, -2.2680836, 1.072734, -0.1768339, 0.24607609, 1.0290455
1565633696146, 11.212324, 6.6821046, -8.741821, -2.1555176, 1.0666894, -0.15339808, 0.314253, 1.0077401
1565633696147, 11.104459, 6.6677346, -8.636441, -2.064507, 1.0577433, -0.11930962, 0.38775626, 0.9768475
1565633696158, 10.926262, 6.6270194, -8.418494, -2.1435425, 1.050281, -0.10759171, 0.46339005, 0.93636745
1565633696161, 10.770968, 6.5072684, -8.3322735, -2.059717, 1.06319, -0.082025364, 0.5368933, 0.9139969
1565633696164, 10.588634, 6.4282327, -8.171807, -2.0046315, 1.0609355, -0.05539375, 0.58696073, 0.88203895
1565633696166, 10.270532, 6.2773466, -7.8772197, -2.0070264, 1.0639694, -0.046871636, 0.6423545, 0.84688526
1565633696178, 10.153848, 6.1863356, -7.767049, -2.1219873, 1.0555207, -0.04474111, 0.6870956, 0.8000136
1565633696180, 9.831991, 6.08814, -7.3934255, -2.2225783, 1.0787005, -0.034088463, 0.7456851, 0.77870834
1565633696185, 9.71765, 5.9396486, -7.3000197, -2.4213648, 1.0796579, -0.0479369, 0.78936094, 0.7350325
1565633696188, 9.555438, 5.8917484, -7.089258, -2.5171657, 1.0871722, -0.0777643, 0.82557994, 0.7030745
1565633696198, 9.35566, 5.740862, -6.864126, -2.7303224, 1.0853477, -0.10226539, 0.8543421, 0.66152924
1565633696200, 9.203939, 5.5803957, -6.7803006, -2.7566676, 1.0900508, -0.13528858, 0.8863, 0.6199839
1565633696205, 9.116662, 5.5492606, -6.6653395, -2.8093581, 1.0972539, -0.16831179, 0.9150622, 0.5816344
1565633696207, 8.879573, 5.264253, -6.591094, -2.7734327, 1.1002227, -0.19281286, 0.9321064, 0.551807
1565633696218, 8.876687, 5.213958, -6.607859, -2.818938, 1.1089326, -0.22264028, 0.95447695, 0.5187838
1565633696221, 8.709375, 5.0702567, -6.557564, -2.672842, 1.1071496, -0.24927188, 0.95660746, 0.49854377
1565633696226, 8.486643, 4.840335, -6.502478, -2.5123756, 1.0988914, -0.26418558, 0.9534117, 0.47830373
1565633696229, 8.246709, 4.5577226, -6.440208, -2.3998096, 1.0933485, -0.28442562, 0.94488955, 0.4708469
1565633696236, 8.150638, 4.4188113, -6.430628, -2.3566992, 1.0996548, -0.30040458, 0.9555422, 0.45380265
1565633696248, 8.104996, 4.351751, -6.476133, -2.193838, 1.0830481, -0.30146983, 0.9406285, 0.44421527
1565633696250, 7.9581156, 4.2272096, -6.454578, -1.949546, 1.060058, -0.3057309, 0.91825795, 0.43249738
1565633696252, 7.8400664, 4.0811133, -6.461763, -1.7483643, 1.0264026, -0.30040458, 0.8831042, 0.4282363
1565633696255, 7.7003336, 3.9805226, -6.4138627, -1.5208374, 0.9949576, -0.28336033, 0.85327685, 0.4261058
1565633696258, 7.705782, 3.9014869, -6.5048733, -1.3579761, 0.9684121, -0.25885928, 0.8223842, 0.44101948
1565633696269, 7.5910087, 3.8104763, -6.456973, -1.1879297, 0.91185397, -0.21518342, 0.773382, 0.43249738
1565633696271, 7.623459, 3.8559816, -6.5000834, -0.9987232, 0.8803249, -0.16618125, 0.74035877, 0.4463458
1565633696276, 7.7434278, 3.906277, -6.5791187, -1.1903248, 0.84433013, -0.1257012, 0.70627034, 0.44528055
1565633696278, 7.7628474, 4.030818, -6.552774, -1.0370435, 0.80378705, -0.08841695, 0.6668556, 0.43995422
1565633696286, 7.8445973, 4.1242237, -6.5719337, -1.1567944, 0.77582484, -0.041545313, 0.6317018, 0.44847634
1565633696288, 7.929767, 4.2511597, -6.574329, -1.2597803, 0.76175046, -0.02130529, 0.608266, 0.45806372
1565633696296, 8.15599, 4.409231, -6.6485744, -1.695674, 0.754305, 0.007456851, 0.59761333, 0.46019423
1565633696298, 8.235101, 4.591253, -6.557564, -1.9327809, 0.7364769, 0.00958738, 0.5816344, 0.45167214
1565633696307, 8.303115, 4.7301636, -6.5072684, -2.0549269, 0.71257675, 0.0063915867, 0.5571333, 0.44421527
1565633696309, 8.378324, 4.7397437, -6.5479836, -2.203418, 0.70259905, 0.0010652645, 0.54435015, 0.44421527
1565633696317, 8.408016, 4.7325587, -6.5455885, -2.335144, 0.69999224, -0.0031957934, 0.53476274, 0.45167214
