TimeStamp(epoch),mAccelerometerMagnitude(m/s^2),mAccelerometerX(m/s^2),mAccelerometerY(m/s^2),mAccelerometerZ(m/s^2),mGyroscopeMagnitude(rad/s),mGyroscopeX(rad/s),mGyroscopeY(rad/s),mGyroscopeZ(rad/s) 
1565632622817, 8.422225, 5.2043777, -0.9029224, 6.559959, 2.6560655, -1.180313, -2.3542345, 0.34514567
1565632622826, 8.183407, 5.0750465, -0.8646021, 6.361172, 2.7426107, -1.0759171, -2.4905882, 0.4016047
1565632622826, 7.876098, 5.017566, -0.847837, 6.0114994, 2.8068204, -1.0077401, -2.5800705, 0.45380265
1565632622840, 7.3683214, 5.010381, -0.8143067, 5.3408937, 2.8403628, -0.9736517, -2.6162896, 0.52411014
1565632622840, 6.9054103, 5.1756372, -0.68737066, 4.519402, 2.8483663, -1.0034791, -2.593919, 0.6146576
1565632622851, 6.6547256, 5.611531, -0.60594, 3.5254688, 2.79816, -1.0652645, -2.4948494, 0.6860303
1565632622851, 6.4783177, 5.9156985, -0.58677983, 2.574646, 2.7354615, -1.212271, -2.3339944, 0.7520767
1565632622859, 6.721527, 6.456973, -0.6490503, 1.7507594, 2.6885436, -1.3869743, -2.1497037, 0.8266452
1565632622859, 6.8220997, 6.5336137, -1.0849439, 1.6357985, 2.6847546, -1.6074841, -1.9398465, 0.92784536
1565632622870, 7.08523, 7.0269876, -0.79754156, 0.43110353, 2.730702, -1.8620822, -1.748099, 0.96619487
1565632622870, 8.126337, 7.89638, -0.8382569, 1.7268091, 2.7916272, -2.1060278, -1.551025, 0.9757822
1565632622879, 8.660289, 8.499925, -1.0418335, 1.2909156, 2.8976269, -2.3595607, -1.4125407, 0.9129316
1565632622879, 9.503253, 9.11784, -1.4849122, 2.2297633, 3.0058088, -2.5566347, -1.3166668, 0.8745821
1565632622889, 10.110398, 9.168135, -1.8106349, 3.8583767, 3.087921, -2.6993802, -1.2580773, 0.8159926
1565632622890, 10.462705, 9.381292, -2.1603076, 4.0978785, 3.1440895, -2.775014, -1.2602079, 0.77231675
1565632622899, 11.559832, 9.158555, -2.2225783, 6.69408, 3.1616433, -2.808037, -1.2612731, 0.721184
1565632622899, 11.159009, 8.945398, -2.3806496, 6.231841, 3.1726387, -2.795254, -1.3358417, 0.68389976
1565632622909, 12.48345, 8.749006, -2.3686745, 8.583751, 3.1397703, -2.7174897, -1.4253238, 0.664725
1565632622910, 12.205847, 8.50711, -2.5027955, 8.387359, 3.1027818, -2.610963, -1.551025, 0.6359629
1565632622919, 12.987563, 8.442444, -2.548301, 9.534574, 3.051898, -2.4501083, -1.7172064, 0.6018744
1565632622920, 13.2810755, 8.226892, -2.5411158, 10.111773, 3.0284078, -2.2849922, -1.8961707, 0.5954828
1565632622929, 12.93802, 8.109536, -2.6512868, 9.726174, 3.0272331, -2.0815268, -2.118811, 0.58483016
1565632622929, 13.93082, 7.917935, -2.4836354, 11.189531, 2.997683, -1.8556907, -2.2807312, 0.5837649
1565632622939, 12.81369, 8.047266, -2.5411158, 9.642349, 3.013016, -1.635181, -2.457565, 0.6040049
1565632622940, 13.666939, 8.097562, -2.327959, 10.760823, 2.9890316, -1.401888, -2.5683527, 0.6103965
1565632622948, 12.027887, 8.064031, -2.2201831, 8.643626, 2.9896982, -1.2463595, -2.6397252, 0.64555025
1565632622948, 11.946311, 8.121511, -1.9734962, 8.53585, 2.9359467, -1.1068097, -2.634399, 0.6743124
1565632622959, 10.758105, 8.167017, -1.7411792, 6.782696, 2.8775947, -1.0929613, -2.5587652, 0.7339672
1565632622959, 9.903811, 8.3322735, -1.5926881, 5.110972, 2.7950242, -1.1590078, -2.4181504, 0.7882957
1565632622970, 9.388494, 8.5430355, -1.5184424, 3.5853443, 2.7459126, -1.3219932, -2.2583606, 0.8319715
1565632622971, 9.420664, 8.931028, -1.5471827, 2.567461, 2.7398927, -1.5488945, -2.0932446, 0.8522116
1565632622981, 9.464207, 9.208851, -1.4705421, 1.6142433, 2.7533748, -1.7949706, -1.8983012, 0.8692558
1565632622981, 9.59815, 9.402847, -1.6310084, 1.0250684, 2.8431957, -2.0921793, -1.7129452, 0.8788432
1565632622990, 9.9025545, 9.671089, -1.7244141, 1.2478052, 2.9541564, -2.3499734, -1.546764, 0.9012137
1565632622991, 10.057711, 9.711804, -1.7771046, 1.9184108, 3.0551388, -2.5555694, -1.406149, 0.9086706
1565632623001, 10.468581, 9.841136, -1.9663111, 2.9794044, 3.1455302, -2.7057717, -1.3145363, 0.9193232
1565632623001, 10.928303, 9.877061, -2.2752686, 4.0859036, 3.170994, -2.7899277, -1.2016183, 0.90973586
1565632623010, 11.436172, 9.924961, -2.6153615, 5.0439115, 3.1948857, -2.8272119, -1.1675298, 0.922519
1565632623011, 12.160246, 10.042317, -2.792593, 6.262976, 3.1734807, -2.7931235, -1.1909657, 0.922519
1565632623021, 12.764612, 10.068663, -2.8261232, 7.31918, 3.108431, -2.7047064, -1.2442288, 0.89375687
1565632623022, 13.466664, 10.35367, -2.8692336, 8.119117, 3.0354073, -2.582201, -1.3401027, 0.86606
1565632623031, 13.99782, 10.492581, -3.06323, 8.744217, 2.9489834, -2.4362597, -1.4444987, 0.8213189
1565632623031, 14.255771, 10.545272, -3.151846, 9.060359, 2.8458934, -2.2487733, -1.5531555, 0.793622
1565632623042, 14.580635, 10.734478, -3.2021413, 9.333391, 2.7387853, -2.0548952, -1.6532904, 0.73822826
1565632623042, 14.548873, 10.744058, -3.288362, 9.242381, 2.6338477, -1.8642128, -1.7182716, 0.7137272
1565632623051, 14.231824, 10.660233, -3.2213013, 8.861572, 2.549132, -1.6767262, -1.7981664, 0.67324716
1565632623052, 13.813387, 10.389595, -3.1566358, 8.538245, 2.4998708, -1.5116103, -1.8738002, 0.67324716
1565632623062, 13.439971, 10.298584, -3.0704153, 8.071217, 2.4613583, -1.3518206, -1.9504992, 0.6530071
1565632623062, 13.287749, 10.226734, -2.919529, 7.965835, 2.44535, -1.2335763, -2.0133498, 0.6359629
1565632623071, 12.057279, 10.181229, -2.816543, 5.8127127, 2.4471781, -1.123854, -2.0793962, 0.63383234
1565632623072, 12.489302, 10.030342, -2.5363257, 6.9958525, 2.4218419, -1.0439591, -2.0900488, 0.6380934
1565632623081, 11.04078, 9.848321, -2.6225464, 4.24637, 2.4189327, -1.0088054, -2.1038973, 0.6380934
1565632623082, 11.033289, 9.630374, -2.4956105, 4.7708793, 2.370536, -0.98110855, -2.049569, 0.67537767
1565632623091, 10.1255455, 9.295072, -2.548301, 3.1039455, 2.3679323, -1.0173275, -2.0133498, 0.72011876
1565632623092, 9.940528, 9.206455, -2.5818312, 2.7183473, 2.3684924, -1.0375676, -1.9824572, 0.7765778
1565632623102, 9.706992, 8.983719, -2.4165747, 2.7710378, 2.3872254, -1.0940266, -1.9504992, 0.83516735
1565632623102, 9.339869, 8.844808, -2.6417067, 1.4226416, 2.4401016, -1.160073, -1.9483687, 0.9012137
1565632623112, 9.756639, 9.002879, -2.5075855, 2.802173, 2.4560459, -1.1984226, -1.9206718, 0.95234644
1565632623113, 9.518481, 9.08431, -2.6105714, 1.1232642, 2.515157, -1.24849, -1.9451729, 0.9917612
1565632623123, 10.134045, 9.352551, -2.6656568, 2.8500733, 2.529375, -1.2761868, -1.9323897, 1.0173275
1565632623123, 10.215895, 9.582474, -2.9626393, 1.9399658, 2.587945, -1.3166668, -1.965413, 1.0492855
1565632623132, 10.473701, 9.656719, -3.0871804, 2.6297317, 2.593477, -1.3124058, -1.9611518, 1.0759171
1565632623133, 10.717283, 9.802815, -3.178191, 2.943479, 2.5848682, -1.3198626, -1.9387813, 1.0865698
1565632623142, 10.873751, 10.056687, -3.2644117, 2.5387208, 2.574938, -1.3017532, -1.9238676, 1.1110709
1565632623143, 11.430271, 10.2315235, -3.1207106, 4.028423, 2.5155838, -1.2634037, -1.8631475, 1.1227888
1565632623152, 11.2936535, 10.483001, -3.278782, 2.6273365, 2.4912, -1.2410331, -1.8407769, 1.1302456
1565632623153, 12.0746975, 10.729688, -3.2644117, 4.4738965, 2.4061778, -1.1909657, -1.7534252, 1.1387677
1565632623162, 11.83981, 10.875784, -3.523074, 3.0799952, 2.3419485, -1.1526161, -1.6873789, 1.144094
1565632623163, 12.055148, 10.981165, -3.4967287, 3.537444, 2.2465806, -1.0982877, -1.5904398, 1.1451592
1565632623173, 12.277129, 11.156001, -3.5063088, 3.7386258, 2.160011, -1.0620687, -1.4977618, 1.1377025
1565632623174, 12.369493, 11.282937, -3.523074, 3.6452198, 2.1090105, -1.0418286, -1.438107, 1.1377025
1565632623183, 12.508284, 11.424244, -3.527864, 3.6739602, 2.0673218, -1.010936, -1.4008228, 1.135572
1565632623184, 12.410101, 11.354788, -3.5685792, 3.5134938, 2.0186641, -0.9768475, -1.3603427, 1.1270498
1565632623193, 12.478224, 11.409874, -3.5685792, 3.5757644, 1.9848864, -0.9395633, -1.3411679, 1.1217234
1565632623194, 12.626266, 11.543995, -3.5949244, 3.6380348, 1.9477923, -0.90014845, -1.3198626, 1.1142666
1565632623204, 12.764523, 11.706856, -3.6212697, 3.5733693, 1.9215068, -0.8692558, -1.3145363, 1.099353
1565632623204, 12.889223, 11.836187, -3.6092947, 3.6068995, 1.8918706, -0.82557994, -1.3156016, 1.0801781
1565632623213, 12.937113, 11.939173, -3.652405, 3.3889527, 1.869215, -0.8032094, -1.3092101, 1.0652645
1565632623214, 12.951785, 11.999048, -3.67875, 3.1997461, 1.8595237, -0.79894835, -1.3134711, 1.0460896
1565632623224, 12.918855, 12.001443, -3.7146754, 3.0105398, 1.8451023, -0.793622, -1.3081448, 1.031176
1565632623225, 12.944518, 12.049344, -3.6931202, 2.955454, 1.83144, -0.78936094, -1.3081448, 1.0098706
1565632623234, 13.018138, 12.147539, -3.6548, 2.924319, 1.8218056, -0.7882957, -1.3124058, 0.98750013
1565632623234, 13.012759, 12.118799, -3.7170706, 2.9410841, 1.799576, -0.79681784, -1.3017532, 0.9534117
1565632623244, 13.03977, 12.15712, -3.6691701, 2.9626393, 1.7708076, -0.7914915, -1.2729911, 0.94275904
1565632623244, 12.926172, 12.058924, -3.6332448, 2.9099488, 1.7440293, -0.7861652, -1.24849, 0.92997587
1565632623254, 13.032812, 12.17149, -3.6859353, 2.8500733, 1.7147651, -0.80107886, -1.2048141, 0.92038846
1565632623254, 12.926318, 12.020603, -3.6548, 3.03928, 1.6677527, -0.79681784, -1.1526161, 0.9044095
1565632623264, 13.017488, 12.046948, -3.7098854, 3.2500417, 1.5931598, -0.76485986, -1.0823087, 0.8841695
1565632623264, 12.860266, 11.910433, -3.6931202, 3.1446607, 1.5479363, -0.773382, -1.0173275, 0.87351686
1565632623274, 12.985184, 12.0253935, -3.6811452, 3.2332766, 1.4887604, -0.7339672, -0.9800433, 0.84688526
1565632623275, 13.174211, 11.872112, -3.652405, 4.390071, 1.4110572, -0.7052051, -0.9012137, 0.82557994
1565632623284, 12.994231, 11.982284, -3.8895118, 3.1853762, 1.3561156, -0.664725, -0.8681905, 0.8021441
1565632623285, 13.74926, 12.17149, -3.7529957, 5.1780324, 1.2702876, -0.61678815, -0.81705785, 0.7520767
1565632623294, 13.297594, 12.20502, -3.8607717, 3.5997145, 1.1941267, -0.56459016, -0.79042625, 0.6945524
1565632623295, 13.839654, 12.2361555, -3.781736, 5.245093, 1.0786396, -0.47297743, -0.7222493, 0.6466155
1565632623305, 13.362168, 11.958333, -3.8464015, 4.5553274, 0.9958177, -0.40586576, -0.6945524, 0.58696073
1565632623305, 13.379209, 11.884088, -3.7314405, 4.8834453, 0.9061764, -0.3110572, -0.6498113, 0.5496765
1565632623314, 13.218796, 11.508069, -3.6452198, 5.3863993, 0.83219314, -0.24181503, -0.59761333, 0.52624065
1565632623314, 12.839922, 11.515254, -3.6955154, 4.3134303, 0.7613243, -0.1470065, -0.5656554, 0.4878911
1565632623325, 12.924803, 11.201507, -3.4967287, 5.4175344, 0.680177, -0.07243799, -0.49854377, 0.45699844
1565632623325, 12.124532, 10.97877, -3.6260598, 3.6500099, 0.63203853, -0.01917476, -0.4644553, 0.4282363
1565632623335, 12.527341, 11.045831, -3.4344583, 4.8091993, 0.5716819, 0.03834952, -0.4133226, 0.3930826
1565632623335, 11.796182, 10.823093, -3.4488282, 3.180586, 0.5338665, 0.05539375, -0.39414784, 0.35579833
1565632623342, 11.866876, 10.736873, -3.432063, 3.7098854, 0.49600616, 0.098004326, -0.36645097, 0.31957933
1565632623342, 11.519285, 10.471025, -3.2644117, 3.5206788, 0.44356596, 0.112918034, -0.3153183, 0.2908172
1565632623351, 11.186167, 10.37762, -3.3242872, 2.5267458, 0.42911783, 0.13848437, -0.3057309, 0.26738137
1565632623352, 11.324119, 10.245894, -3.2332766, 3.5781593, 0.38227558, 0.15765914, -0.26418558, 0.22690132
1565632623361, 11.027292, 10.257869, -3.3434474, 2.2800586, 0.34886396, 0.16085494, -0.24714136, 0.18642128
1565632623361, 11.008143, 10.27224, -3.2644117, 2.2369483, 0.33312985, 0.17896444, -0.23329292, 0.15659387
1565632623371, 11.0532, 10.298584, -3.283572, 2.308799, 0.2853557, 0.16405073, -0.21092236, 0.10013486
1565632623372, 11.210271, 10.454261, -3.4679885, 2.0860622, 0.24468872, 0.16405073, -0.17789917, 0.036218993
1565632623382, 11.230105, 10.466236, -3.5829494, 1.9327809, 0.2224669, 0.16405073, -0.15020229, -0.004261058
1565632623383, 11.0160475, 10.274634, -3.5039136, 1.8729054, 0.21298097, 0.17257284, -0.111852765, -0.05539375
1565632623393, 10.948462, 10.188414, -3.5709743, 1.8202149, 0.21796311, 0.18109496, -0.084155895, -0.08735169
1565632623393, 10.700389, 9.948912, -3.558999, 1.6884888, 0.22872695, 0.18216023, -0.07350325, -0.11717909
1565632623405, 10.545169, 9.7812605, -3.6500099, 1.4849122, 0.22802383, 0.17150758, -0.05006743, -0.14168017
1565632623405, 10.390389, 9.599238, -3.7937112, 1.1927198, 0.21058044, 0.14274544, -0.041545313, -0.14913702
1565632623416, 10.37884, 9.520203, -4.0116577, 0.9963282, 0.18649735, 0.10546118, -0.02130529, -0.15233281
1565632623416, 10.366758, 9.422008, -4.258345, 0.7496411, 0.16771066, 0.084155895, -0.007456851, -0.14487597
1565632623426, 10.464925, 9.448353, -4.4379716, 0.74006104, 0.13505352, 0.025566347, 0.011717909, -0.13209279
1565632623426, 10.505781, 9.438772, -4.5768824, 0.57719976, 0.14246294, -0.0127831735, 0.049002163, -0.13315806
1565632623436, 10.70438, 9.575289, -4.7469287, 0.60354495, 0.16365942, -0.05219796, 0.08628642, -0.128897
1565632623437, 10.847642, 9.654325, -4.91937, 0.51492923, 0.20199053, -0.098004326, 0.10546118, -0.14168017
1565632623446, 10.941349, 9.632769, -5.132527, 0.76161623, 0.23540415, -0.11717909, 0.1470065, -0.14168017
1565632623447, 10.99421, 9.6758795, -5.1684523, 0.732876, 0.2689471, -0.14807177, 0.16192019, -0.1555286
1565632623457, 10.962451, 9.5561285, -5.3241286, 0.71371585, 0.30423698, -0.17576863, 0.18642128, -0.16405073
1565632623458, 10.900128, 9.378897, -5.47262, 0.9484278, 0.3166614, -0.18535602, 0.19387813, -0.16831179
1565632623466, 10.852389, 9.189691, -5.4750147, 1.829795, 0.3421473, -0.20026971, 0.22370553, -0.16405073
1565632623467, 10.499753, 8.820857, -5.695357, -0.014370117, 0.34561223, -0.24074976, 0.18961707, -0.15978967
1565632623476, 10.608966, 8.844808, -5.6929617, 1.3819263, 0.35567233, -0.25992453, 0.18642128, -0.1555286
1565632623477, 10.292225, 8.468789, -5.8103175, 0.6706055, 0.37524837, -0.29188246, 0.18002969, -0.15233281
1565632623486, 10.166091, 8.358619, -5.752837, 0.6227051, 0.354869, -0.2908172, 0.1555286, -0.13102753
1565632623487, 9.9964075, 8.102351, -5.6354814, 1.587898, 0.35291135, -0.30253512, 0.15020229, -0.10226539
1565632623496, 9.944728, 8.064031, -5.8103175, 0.3305127, 0.33622724, -0.30253512, 0.1257012, -0.07563378
1565632623496, 9.806731, 7.8508744, -5.518125, 2.0213966, 0.32069415, -0.2876214, 0.13528858, -0.04261058
1565632623503, 9.562545, 7.767049, -5.5708156, 0.28500733, 0.314549, -0.29933932, 0.09374327, -0.023435818
1565632623503, 9.780813, 7.951465, -5.4103494, 1.7794995, 0.29460293, -0.28442562, 0.07669904, 0.0031957934
1565632623513, 9.6436825, 7.9083548, -5.4606447, 0.79993653, 0.28693408, -0.28336033, 0.04261058, 0.014913702
1565632623514, 9.847864, 8.229287, -5.2977834, 1.092129, 0.26467052, -0.26418558, -0.0010652645, 0.015978966
1565632623524, 9.729919, 8.157437, -5.094207, 1.4753321, 0.25110883, -0.24927188, -0.02876214, 0.00958738
1565632623524, 9.774594, 8.303533, -5.125342, 0.57001466, 0.23955664, -0.23116238, -0.0628506, -0.0010652645
1565632623534, 9.838463, 8.327483, -4.87147, 1.9279908, 0.22513905, -0.20772657, -0.08628642, -0.00958738
1565632623534, 9.656735, 8.372989, -4.8044095, 0.25147706, 0.22540854, -0.1949434, -0.112918034, -0.007456851
1565632623544, 9.7481985, 8.401729, -4.605623, 1.7962648, 0.19241223, -0.16298546, -0.10226539, 0.0
1565632623544, 9.494458, 8.267608, -4.634363, 0.5604346, 0.18866012, -0.14487597, -0.12037488, 0.010652645
1565632623554, 9.500447, 8.3179035, -4.4188113, 1.2430152, 0.15503532, -0.10865697, -0.10759171, 0.025566347
1565632623554, 9.314417, 8.188572, -4.311035, 1.0585986, 0.12933645, -0.084155895, -0.08948222, 0.040480047
1565632623564, 9.376594, 8.315508, -4.277505, 0.68976563, 0.10229313, -0.043675844, -0.07243799, 0.05752428
1565632623565, 9.232769, 8.238868, -4.1170387, 0.6442603, 0.10050814, -0.020240024, -0.05752428, 0.07989483
1565632623573, 9.185392, 8.229287, -4.0427933, 0.55324954, 0.11103817, 0.002130529, -0.0479369, 0.10013486
1565632623574, 9.16244, 8.207732, -4.061953, 0.28979737, 0.13007572, -0.010652645, -0.013848438, 0.128897
1565632623584, 9.237419, 8.298743, -4.0571632, -0.014370117, 0.15462856, -0.0063915867, 0.0031957934, 0.15446335
1565632623584, 9.311429, 8.399334, -4.016448, -0.14849122, 0.16116504, -0.018109497, 0.010652645, 0.15978967
1565632623594, 9.509019, 8.629255, -3.9924977, -0.13172609, 0.16896114, -0.018109497, 0.04474111, 0.16192019
1565632623595, 9.626638, 8.749006, -4.009263, -0.22992188, 0.18555488, -0.024501082, 0.07882957, 0.16618125
1565632623604, 9.615544, 8.772957, -3.915857, -0.39996827, 0.18421684, -0.04261058, 0.09267801, 0.15339808
1565632623605, 9.806247, 8.916658, -4.0595584, -0.41912845, 0.17794062, -0.06178534, 0.10333065, 0.13102753
1565632623614, 9.97663, 9.05557, -4.152964, -0.53169435, 0.17088781, -0.08841695, 0.09161274, 0.113983296
1565632623615, 9.961338, 9.017249, -4.1864944, -0.62510014, 0.17105706, -0.1107875, 0.09054748, 0.09374327
1565632623624, 10.020223, 9.045989, -4.2511597, -0.7089258, 0.17955633, -0.13102753, 0.10546118, 0.0628506
1565632623625, 9.951281, 8.926238, -4.3421707, -0.7041358, 0.19525747, -0.14913702, 0.11611383, 0.049002163
1565632623634, 9.94089, 8.883128, -4.4212065, -0.60354495, 0.20599306, -0.16937704, 0.1107875, 0.03834952
1565632623635, 9.91537, 8.878338, -4.3493557, -0.7568262, 0.21908997, -0.1949434, 0.096939065, 0.024501082
1565632623644, 10.0950365, 9.045989, -4.4283915, -0.6849756, 0.2330301, -0.21092236, 0.099069595, 0.0
1565632623645, 10.17025, 9.115445, -4.4499464, -0.73527104, 0.2637772, -0.24820662, 0.084155895, -0.029827405
1565632623654, 10.098269, 8.988508, -4.5577226, -0.6394702, 0.27687863, -0.25992453, 0.083090626, -0.046871636
1565632623655, 10.085198, 8.971744, -4.5601172, -0.6514453, 0.30119872, -0.28122982, 0.07243799, -0.07989483
1565632623665, 10.164914, 9.002879, -4.6918435, -0.51013917, 0.30376667, -0.28549087, 0.054328486, -0.08841695
1565632623665, 10.1386795, 8.998089, -4.6583133, -0.35685793, 0.3243201, -0.29827404, 0.041545313, -0.12037488
1565632623675, 10.251603, 9.057964, -4.792434, -0.28500733, 0.32375804, -0.28975195, 0.033023197, -0.14061491
1565632623676, 10.162215, 8.959768, -4.792434, -0.16046631, 0.328701, -0.28229508, 0.033023197, -0.165116
1565632623685, 10.323401, 9.079519, -4.90979, -0.17004639, 0.325082, -0.27377295, 0.036218993, -0.17150758
1565632623686, 10.365558, 9.096285, -4.9696655, -0.06945557, 0.3422617, -0.2790993, 0.02876214, -0.19600865
1565632623696, 10.391204, 9.127419, -4.9648757, -0.13172609, 0.36537796, -0.29188246, 0.04474111, -0.21518342
1565632623697, 10.360073, 9.091495, -4.967271, 0.045505375, 0.3845723, -0.29933932, 0.066046394, -0.23222765
1565632623706, 10.361611, 9.048384, -5.0487013, -0.019160157, 0.39222714, -0.30466563, 0.07137272, -0.23648871
1565632623706, 10.303728, 9.022039, -4.976851, 0.023950197, 0.4170099, -0.31851408, 0.084155895, -0.25566345
1565632623716, 10.206265, 8.935819, -4.9313455, 0.028740235, 0.4267498, -0.32810146, 0.08948222, -0.257794
1565632623716, 10.115615, 8.796907, -4.993616, 0.06227051, 0.43314365, -0.34301516, 0.07882957, -0.25246766
1565632623725, 10.04167, 8.722662, -4.9720607, 0.17004639, 0.429546, -0.34194988, 0.09267801, -0.2428803
1565632623726, 9.956419, 8.641231, -4.9361353, 0.3065625, 0.4403925, -0.34940675, 0.0958738, -0.25033715
1565632623736, 9.73166, 8.442444, -4.8283596, 0.3424878, 0.4219765, -0.33768883, 0.098004326, -0.23329292
1565632623737, 9.7059965, 8.432864, -4.790039, 0.38559815, 0.41182774, -0.330232, 0.10013486, -0.2247708
1565632623746, 9.629658, 8.3322735, -4.82357, 0.19160157, 0.4044822, -0.3355583, 0.10439592, -0.20026971
1565632623746, 9.707268, 8.49753, -4.6918435, -0.098195806, 0.4251393, -0.3568636, 0.10546118, -0.20559604
1565632623756, 9.696059, 8.502319, -4.6583133, -0.15567628, 0.44656184, -0.38242993, 0.11611383, -0.19920446
1565632623757, 9.85685, 8.657996, -4.703819, -0.26584718, 0.49054706, -0.42397526, 0.13315806, -0.20772657
1565632623766, 9.811558, 8.672366, -4.5744877, -0.36164796, 0.50807756, -0.43888897, 0.14807177, -0.20879184
1565632623767, 9.722347, 8.624466, -4.478687, -0.28979737, 0.5290805, -0.45912898, 0.15978967, -0.20879184
1565632623776, 9.696216, 8.626861, -4.406836, -0.4167334, 0.56469667, -0.4889564, 0.17789917, -0.21944448
1565632623777, 9.7761135, 8.734636, -4.3709106, -0.4167334, 0.5949042, -0.5123922, 0.20559604, -0.221575
1565632623786, 9.776669, 8.751402, -4.3325906, -0.4742139, 0.6310018, -0.5432849, 0.22264028, -0.23116238
1565632623787, 9.929133, 8.861572, -4.4451566, -0.5484595, 0.6641657, -0.572047, 0.23861924, -0.23861924
1565632623796, 9.867077, 8.828042, -4.385281, -0.4406836, 0.6988703, -0.59761333, 0.257794, -0.2545982
1565632623797, 9.851435, 8.796907, -4.4116263, -0.45026368, 0.74192053, -0.6317018, 0.2876214, -0.26205507
1565632623807, 9.817645, 8.734636, -4.4595265, -0.4526587, 0.77067006, -0.6562029, 0.3121225, -0.25672874
1565632623807, 9.892859, 8.760982, -4.5744877, -0.43349856, 0.8057266, -0.6892261, 0.34088463, -0.24074976
1565632623816, 9.894048, 8.741821, -4.617598, -0.3879932, 0.83932424, -0.71479243, 0.3653857, -0.24501082
1565632623817, 10.023061, 8.835227, -4.7229786, -0.3065625, 0.8784977, -0.7456851, 0.4016047, -0.23329292
1565632623827, 10.036016, 8.854387, -4.7229786, -0.122146, 0.89392, -0.7552725, 0.41438788, -0.23861924
1565632623827, 10.130975, 8.916658, -4.8091993, -0.038320314, 0.92537946, -0.7765778, 0.44421527, -0.23648871
1565632623837, 10.217229, 8.933423, -4.9576907, 0.083825685, 0.9434503, -0.777643, 0.47191215, -0.25033715
1565632623838, 10.145862, 8.849598, -4.9576907, 0.21076173, 0.9605313, -0.7819041, 0.49641323, -0.2545982
1565632623847, 10.184902, 8.840017, -5.0487013, 0.31135255, 0.9763321, -0.78936094, 0.51665324, -0.2514024
1565632623848, 10.080697, 8.691526, -5.0894165, 0.41912845, 0.95838815, -0.77125144, 0.51984906, -0.23116238
1565632623857, 9.929923, 8.5430355, -5.039121, 0.4766089, 0.96554863, -0.76485986, 0.5411543, -0.23329292
1565632623858, 9.855907, 8.48316, -4.976851, 0.63707525, 0.9591002, -0.75420725, 0.55606806, -0.20453078
1565632623867, 9.975131, 8.571775, -5.0558863, 0.6825806, 0.9598907, -0.737163, 0.58483016, -0.18961707
1565632623868, 9.985993, 8.590936, -5.039121, 0.7232959, 0.95852846, -0.721184, 0.6061355, -0.1768339
1565632623877, 10.011698, 8.689131, -4.9241605, 0.69695073, 0.93522096, -0.69135666, 0.60720074, -0.16724652
1565632623878, 10.281264, 8.919053, -5.0534916, 0.78556645, 0.92353576, -0.6764429, 0.6040049, -0.17470337
1565632623887, 10.378428, 9.057964, -5.017566, 0.6993457, 0.9176837, -0.6593987, 0.6103965, -0.18642128
1565632623888, 10.391217, 9.077125, -5.0031962, 0.7424561, 0.89236486, -0.6317018, 0.5965481, -0.2034655
1565632623900, 10.356314, 9.024434, -5.0271463, 0.73527104, 0.86594206, -0.6061355, 0.5773733, -0.221575
1565632623901, 10.21575, 8.909473, -4.9696655, 0.5340894, 0.84041876, -0.58909124, 0.5581986, -0.21837921
1565632623907, 9.961876, 8.708291, -4.8163843, 0.45505372, 0.7998008, -0.56885123, 0.51984906, -0.21411815
1565632623908, 9.836538, 8.57417, -4.8020144, 0.4263135, 0.77732927, -0.5699165, 0.4878911, -0.2034655
1565632623918, 9.609507, 8.322693, -4.7972245, 0.24908204, 0.74324167, -0.5571333, 0.45167214, -0.1949434
1565632623919, 9.568279, 8.298743, -4.754114, 0.28500733, 0.6998236, -0.5432849, 0.40906155, -0.165116
1565632623931, 9.461579, 8.190968, -4.7301636, 0.23471193, 0.6805039, -0.551807, 0.3717773, -0.14274544
1565632623931, 9.309094, 8.0305, -4.7014236, 0.25866213, 0.6469848, -0.53795856, 0.3334278, -0.13422333
1565632623941, 9.304627, 8.059241, -4.643943, 0.24189699, 0.61300576, -0.5294364, 0.2908172, -0.10439592
1565632623942, 9.332023, 8.047266, -4.7062135, 0.4239185, 0.58509403, -0.51984906, 0.25566345, -0.082025364
1565632623951, 9.349282, 8.073611, -4.6942387, 0.43589357, 0.5479075, -0.50173956, 0.2130529, -0.05539375
1565632623952, 9.478431, 8.2197075, -4.7014236, 0.4167334, 0.53244257, -0.49321744, 0.19920446, -0.023435818
1565632623961, 9.595431, 8.384964, -4.636758, 0.51492923, 0.52541083, -0.4910869, 0.18642128, -0.011717909
1565632623962, 9.789606, 8.6077, -4.643943, 0.42152345, 0.50280595, -0.47297743, 0.17044231, 0.007456851
1565632623970, 9.917007, 8.720266, -4.679868, 0.6346802, 0.47611603, -0.4463458, 0.16405073, 0.023435818
1565632623971, 10.120746, 8.957374, -4.6511283, 0.7496411, 0.45466706, -0.41545314, 0.18322548, 0.023435818
1565632623979, 10.206157, 9.062755, -4.634363, 0.7448511, 0.42524335, -0.38242993, 0.18535602, 0.014913702
1565632623979, 10.286561, 9.148975, -4.634363, 0.7951465, 0.3974022, -0.35260254, 0.18322548, 0.0053263223
1565632623989, 10.399099, 9.242381, -4.6607084, 0.9987232, 0.36520708, -0.3121225, 0.18961707, 0.0010652645
1565632623990, 10.40783, 9.273516, -4.624783, 0.96758795, 0.3166596, -0.26738137, 0.16937704, -0.00958738
1565632623999, 10.328883, 9.2184305, -4.5720925, 0.89573735, 0.27125156, -0.22370553, 0.15233281, -0.018109497
1565632624000, 10.200247, 9.1202345, -4.493057, 0.82388675, 0.23375942, -0.18748654, 0.13954964, -0.004261058
1565632624011, 10.104147, 9.048384, -4.4427614, 0.6945557, 0.19339173, -0.15446335, 0.113983296, -0.023435818
1565632624013, 10.160931, 9.153765, -4.382886, 0.49337405, 0.16429266, -0.13635385, 0.08628642, -0.03089267
1565632624022, 10.165927, 9.242381, -4.2296047, 0.18681154, 0.14497776, -0.12357068, 0.06924219, -0.03089267
1565632624023, 10.1572, 9.21364, -4.2751102, -0.031135255, 0.12936276, -0.11611383, 0.0479369, -0.03089267
1565632624030, 10.151926, 9.223221, -4.2128396, -0.49576905, 0.1448838, -0.13315806, 0.034088463, -0.04580637
1565632624030, 10.118354, 9.18011, -4.2008643, -0.6777906, 0.16129173, -0.14807177, 0.03195793, -0.05539375
1565632624040, 9.976343, 8.995694, -4.2248144, -0.86939216, 0.18827778, -0.17789917, 0.01917476, -0.058589544
1565632624041, 9.991373, 9.026829, -4.145779, -1.0753639, 0.22622013, -0.21731395, 0.0, -0.0628506
1565632624053, 10.015743, 9.022039, -4.1793094, -1.2046949, 0.26826692, -0.25246766, -0.020240024, -0.08841695
1565632624054, 10.048168, 9.086704, -4.054768, -1.3986914, 0.31828597, -0.30040458, -0.058589544, -0.08735169
1565632624060, 10.006728, 8.993299, -4.0906935, -1.587898, 0.37416872, -0.35473305, -0.083090626, -0.08522116
1565632624061, 9.932899, 8.919053, -4.061953, -1.6166383, 0.42680562, -0.4111921, -0.096939065, -0.060720075
1565632624071, 9.840841, 8.789722, -4.0835085, -1.705254, 0.47440284, -0.4612595, -0.094808534, -0.05752428
1565632624072, 9.922736, 8.828042, -4.2296047, -1.6238233, 0.5074205, -0.49960902, -0.080960095, -0.036218993
1565632624080, 9.938808, 8.902288, -4.167334, -1.4705421, 0.5605974, -0.55606806, -0.068176925, -0.020240024
1565632624081, 9.9288, 8.911868, -4.2248144, -1.1448194, 0.58214635, -0.58056915, -0.04261058, -0.004261058
1565632624092, 10.093282, 9.086704, -4.2918754, -0.9412427, 0.6078648, -0.6061355, -0.037284255, 0.026631612
1565632624092, 10.177864, 9.192085, -4.3086405, -0.728086, 0.6266517, -0.62531024, -0.01917476, 0.036218993
1565632624103, 10.368517, 9.357342, -4.4403663, -0.47900394, 0.6327429, -0.6317018, -0.002130529, 0.036218993
1565632624104, 10.613277, 9.587264, -4.543352, -0.28979737, 0.62060684, -0.61891866, 0.02130529, 0.040480047
1565632624113, 10.639686, 9.639954, -4.502637, 0.021555176, 0.595439, -0.5933523, 0.037284255, 0.033023197
1565632624114, 10.71826, 9.704619, -4.5457473, 0.1939966, 0.57466155, -0.572047, 0.043675844, 0.033023197
1565632624124, 10.793349, 9.73815, -4.6104126, 0.6394702, 0.535791, -0.5336975, 0.040480047, 0.024501082
1565632624125, 10.662772, 9.611214, -4.533772, 0.87418216, 0.47978666, -0.479369, 0.008522116, 0.018109497
1565632624133, 10.558358, 9.541759, -4.414021, 0.974773, 0.4284072, -0.42717105, -0.017044231, 0.027696876
1565632624135, 10.4971695, 9.491463, -4.3637257, 1.0298585, 0.37976345, -0.37390783, -0.06391586, 0.018109497
1565632624144, 10.428277, 9.469908, -4.2511597, 0.9987232, 0.34496644, -0.3291667, -0.101200126, 0.020240024
1565632624145, 10.318677, 9.371712, -4.2272096, 0.8813672, 0.3176025, -0.2759035, -0.15446335, 0.029827405
1565632624153, 10.318457, 9.354947, -4.287085, 0.7592212, 0.3140977, -0.24181503, -0.19920446, 0.022370555
1565632624155, 10.267366, 9.378897, -4.145779, 0.51732427, 0.32535765, -0.22370553, -0.23435818, 0.029827405
1565632624164, 10.206565, 9.304651, -4.1793094, 0.36164796, 0.34878585, -0.20559604, -0.28016454, 0.029827405
1565632624165, 10.204274, 9.383687, -4.006868, 0.13651612, 0.3774916, -0.2034655, -0.3174488, 0.018109497
1565632624174, 10.218217, 9.378897, -4.0523734, -0.16286133, 0.41389465, -0.21837921, -0.35153726, 0.0063915867
1565632624175, 10.333587, 9.513018, -4.0116577, -0.4382886, 0.44120213, -0.22690132, -0.37816888, -0.0127831735
1565632624184, 10.177579, 9.362132, -3.9493873, -0.57959473, 0.4750291, -0.25672874, -0.39947417, -0.0127831735
1565632624185, 9.942442, 9.220825, -3.6907253, -0.45505372, 0.49122903, -0.26844665, -0.4111921, -0.0127831735
1565632624194, 9.695988, 8.957374, -3.66438, -0.59156984, 0.50077516, -0.28549087, -0.4111921, -0.013848438
1565632624195, 9.606607, 8.931028, -3.5063088, -0.47900394, 0.50136966, -0.3057309, -0.39734364, 0.004261058
1565632624205, 9.498768, 8.825647, -3.4775686, -0.49097902, 0.49315763, -0.30999196, -0.3834952, 0.0063915867
1565632624207, 9.522513, 8.856783, -3.4703834, -0.4382886, 0.49012008, -0.32490566, -0.36645097, 0.01917476
1565632624213, 9.359325, 8.691526, -3.4608033, -0.2778223, 0.4771291, -0.33662358, -0.33662358, 0.03195793
1565632624215, 9.404889, 8.749006, -3.4464333, -0.17004639, 0.47467542, -0.34834146, -0.3206446, 0.034088463
1565632624225, 9.4260435, 8.758587, -3.4799635, -0.16525635, 0.46509743, -0.36325517, -0.28868666, 0.03195793
1565632624227, 9.451785, 8.782537, -3.4919386, -0.098195806, 0.45919695, -0.37710363, -0.257794, 0.046871636
1565632624234, 9.59545, 8.943004, -3.4775686, -0.043110352, 0.451363, -0.3834952, -0.23542345, 0.035153728
1565632624236, 9.484689, 8.820857, -3.4847536, 0.09101075, 0.42243344, -0.3685815, -0.20559604, 0.018109497
1565632624243, 9.517456, 8.849598, -3.4943337, 0.23710695, 0.42453963, -0.37923414, -0.19068234, 0.007456851
1565632624245, 9.602466, 8.914263, -3.547024, 0.4023633, 0.4070509, -0.36964676, -0.17044231, 0.0010652645
1565632624255, 9.700411, 9.005274, -3.5733693, 0.48379397, 0.3889514, -0.3568636, -0.15446335, -0.008522116
1565632624257, 9.536666, 8.830438, -3.5494192, 0.61073, 0.36470494, -0.33768883, -0.13741912, -0.00958738
1565632624264, 9.547245, 8.825647, -3.5709743, 0.7113208, 0.35093796, -0.33129725, -0.11504856, -0.0127831735
1565632624266, 9.481815, 8.811277, -3.4560134, 0.5676197, 0.34462747, -0.33129725, -0.09374327, -0.014913702
1565632624275, 9.53126, 8.854387, -3.5063088, 0.3879932, 0.3396089, -0.3291667, -0.07989483, -0.024501082
1565632624277, 9.718031, 9.041199, -3.5542092, 0.25387207, 0.36636582, -0.35579833, -0.06924219, -0.053263225
1565632624285, 9.6855755, 9.022039, -3.523074, 0.033530276, 0.3760338, -0.3653857, -0.054328486, -0.070307456
1565632624287, 9.672739, 9.010064, -3.5182838, 0.047900394, 0.4100009, -0.39734364, -0.049002163, -0.08841695
1565632624295, 9.7129965, 9.036409, -3.5613942, 0.045505375, 0.44772038, -0.43036684, -0.04474111, -0.11504856
1565632624297, 9.585773, 8.871153, -3.6308498, -0.081430666, 0.49181312, -0.4708469, -0.026631612, -0.13954964
1565632624305, 9.587884, 8.863968, -3.6548, -0.0047900393, 0.5362556, -0.51026165, -0.017044231, -0.16405073
1565632624307, 9.47714, 8.698711, -3.7601807, -0.098195806, 0.57513624, -0.551807, -0.008522116, -0.16192019
1565632624315, 9.491382, 8.717872, -3.7529957, -0.0071850587, 0.60352385, -0.5816344, 0.020240024, -0.15978967
1565632624317, 9.4082985, 8.557405, -3.908672, 0.09580079, 0.6356505, -0.6146576, 0.060720075, -0.15020229
1565632624325, 9.30935, 8.377779, -4.0523734, 0.23471193, 0.66485983, -0.6402239, 0.08735169, -0.15659387
1565632624327, 9.385468, 8.4376545, -4.1050634, 0.20357667, 0.6899008, -0.66365975, 0.12783173, -0.13848437
1565632624335, 9.403047, 8.377779, -4.24637, 0.44547364, 0.71147066, -0.680704, 0.16192019, -0.128897
1565632624337, 9.409581, 8.392149, -4.2200246, 0.5508545, 0.7313241, -0.6924219, 0.21092236, -0.10439592
1565632624345, 9.545582, 8.487949, -4.3158255, 0.6682105, 0.7324272, -0.6828345, 0.24394555, -0.10333065
1565632624347, 9.623401, 8.523875, -4.375701, 0.8981324, 0.7606391, -0.6956177, 0.28868666, -0.10652645
1565632624355, 9.779425, 8.636441, -4.4762917, 1.0059083, 0.75981134, -0.6775082, 0.32597092, -0.10972224
1565632624356, 10.001154, 8.775352, -4.6726832, 1.0873389, 0.76260144, -0.6625945, 0.36218992, -0.10652645
1565632624376, 9.970305, 8.708291, -4.6750784, 1.3100758, 0.75604445, -0.63702816, 0.39521313, -0.098004326
1565632624380, 9.897005, 8.62207, -4.643943, 1.4298267, 0.7290559, -0.60507023, 0.3930826, -0.10439592
1565632624383, 9.946426, 8.655601, -4.6511283, 1.5423926, 0.71654296, -0.5784386, 0.4133226, -0.08948222
1565632624387, 9.88304, 8.586145, -4.641548, 1.5519727, 0.6851001, -0.5390238, 0.41545314, -0.07882957
1565632624390, 9.98224, 8.679551, -4.6271777, 1.7028589, 0.6582136, -0.49002165, 0.4346279, -0.06498113
1565632624391, 10.151697, 8.868757, -4.653523, 1.6573536, 0.6262713, -0.43888897, 0.44101948, -0.07137272
1565632624398, 10.101217, 8.842413, -4.5864625, 1.6765138, 0.60121983, -0.39521313, 0.4463458, -0.0777643
1565632624401, 10.187495, 8.952583, -4.5816727, 1.6262183, 0.5770175, -0.34940675, 0.45060685, -0.08841695
1565632624404, 10.192462, 8.976534, -4.598438, 1.4705421, 0.54832983, -0.30253512, 0.44847634, -0.08948222
1565632624405, 10.065003, 8.940608, -4.4762917, 1.1543995, 0.52607673, -0.2790993, 0.43249738, -0.10865697
1565632624417, 9.944091, 8.856783, -4.399651, 1.0418335, 0.49394512, -0.25033715, 0.40906155, -0.11824436
1565632624418, 9.965241, 8.962164, -4.3086405, 0.6490503, 0.48417997, -0.2428803, 0.40053943, -0.12250541
1565632624423, 9.832736, 8.835227, -4.3014555, 0.34488282, 0.46469346, -0.24607609, 0.3717773, -0.13102753
1565632624425, 9.7361, 8.768167, -4.2296047, 0.1460962, 0.46201295, -0.25033715, 0.36112466, -0.14274544
1565632624434, 9.680452, 8.722662, -4.1960745, -0.13891114, 0.4635908, -0.27483824, 0.34408042, -0.14487597
1565632624435, 9.506911, 8.5430355, -4.160149, -0.30177248, 0.47914407, -0.3057309, 0.34194988, -0.13848437
1565632624444, 9.419304, 8.4304695, -4.181704, -0.4047583, 0.49112388, -0.32597092, 0.34194988, -0.13422333
1565632624448, 9.286089, 8.262817, -4.2104445, -0.47900394, 0.513463, -0.35260254, 0.3536678, -0.11930962
1565632624454, 9.237, 8.226892, -4.145779, -0.6730005, 0.53708243, -0.386691, 0.3568636, -0.10759171
1565632624455, 9.316634, 8.310719, -4.145779, -0.7376661, 0.55965227, -0.41758367, 0.36005938, -0.0958738
1565632624465, 9.509519, 8.499925, -4.2248144, -0.57719976, 0.6026479, -0.45486793, 0.38456047, -0.09161274
1565632624465, 9.590598, 8.600515, -4.2128396, -0.5125342, 0.63233745, -0.46978164, 0.41545314, -0.080960095
1565632624474, 9.713599, 8.691526, -4.3062453, -0.51732427, 0.6751004, -0.49534798, 0.45167214, -0.07989483
1565632624475, 9.771352, 8.749006, -4.3230104, -0.49576905, 0.729048, -0.50813115, 0.51665324, -0.07989483
1565632624485, 9.865172, 8.863968, -4.3206153, -0.28979737, 0.76683503, -0.5123922, 0.56459016, -0.082025364
1565632624486, 9.901346, 8.892708, -4.3493557, -0.19878663, 0.79237485, -0.49854377, 0.6103965, -0.082025364
1565632624495, 9.833336, 8.849598, -4.287085, -0.0047900393, 0.80602586, -0.49215218, 0.63383234, -0.07563378
1565632624496, 9.66193, 8.691526, -4.2200246, 0.040715333, 0.8144335, -0.47723848, 0.6562029, -0.070307456
1565632624506, 9.676622, 8.720266, -4.1936793, 0.083825685, 0.8045321, -0.45486793, 0.6593987, -0.07456851
1565632624507, 9.58831, 8.660391, -4.1146436, 0.05508545, 0.7971317, -0.45167214, 0.65194184, -0.07989483
1565632624516, 9.604146, 8.703502, -4.0571632, -0.16765137, 0.77454984, -0.44528055, 0.6306366, -0.0628506
1565632624517, 9.506806, 8.653206, -3.9182522, -0.38559815, 0.7912771, -0.47404268, 0.628506, -0.07989483
1565632624525, 9.571649, 8.703502, -3.9589674, -0.4382886, 0.7765025, -0.4910869, 0.59761333, -0.068176925
1565632624527, 9.551941, 8.677156, -3.9374123, -0.6658155, 0.7869334, -0.5219796, 0.58269966, -0.08522116
1565632624535, 9.501825, 8.672366, -3.788921, -0.847837, 0.79732823, -0.55606806, 0.5656554, -0.080960095
1565632624537, 9.412402, 8.557405, -3.786526, -1.0130934, 0.8213306, -0.58909124, 0.56672066, -0.07989483
1565632624546, 9.443024, 8.610096, -3.7338357, -1.0466236, 0.85725135, -0.6306366, 0.5773733, -0.06178534
1565632624548, 9.451689, 8.571775, -3.8248463, -1.1088941, 0.88212836, -0.6679208, 0.572047, -0.06924219
1565632624556, 9.525201, 8.701106, -3.7434156, -1.0035132, 0.9096872, -0.7094661, 0.5656554, -0.06498113
1565632624557, 9.728528, 8.904683, -3.784131, -1.0154883, 0.94315195, -0.7520767, 0.5656554, -0.0628506
1565632624566, 9.807411, 8.962164, -3.8655617, -0.96040285, 0.9625948, -0.78723043, 0.5486112, -0.07669904
1565632624568, 9.864009, 9.026829, -3.8655617, -0.93405765, 0.9963834, -0.8213189, 0.5571333, -0.08841695
1565632624577, 10.0186825, 9.14658, -4.009263, -0.79993653, 1.0203271, -0.8511463, 0.5550028, -0.09267801
1565632624579, 9.897904, 9.026829, -3.9853127, -0.7759864, 1.0425588, -0.87990844, 0.551807, -0.09054748
1565632624586, 9.7981615, 8.8879175, -4.0739284, -0.64186525, 1.0675172, -0.9076053, 0.5550028, -0.08841695
1565632624587, 9.649164, 8.741821, -4.054768, -0.49576905, 1.080248, -0.92464954, 0.5496765, -0.099069595
1565632624597, 9.699076, 8.768167, -4.133804, -0.32093263, 1.0803237, -0.9257148, 0.5496765, -0.08948222
1565632624599, 9.653315, 8.710687, -4.157754, -0.15328126, 1.0905758, -0.93636745, 0.55287224, -0.083090626
1565632624606, 9.623704, 8.665181, -4.1864944, -0.059875492, 1.0968118, -0.9416938, 0.5592638, -0.058589544
1565632624609, 9.459929, 8.495134, -4.160149, 0.12693603, 1.0879339, -0.9321064, 0.5592638, -0.04474111
1565632624617, 9.423486, 8.442444, -4.1721244, 0.34727785, 1.0754999, -0.9139969, 0.56672066, -0.011717909
1565632624618, 9.353029, 8.368198, -4.1625443, 0.3544629, 1.0561639, -0.89588743, 0.5592638, 0.00958738
1565632624626, 9.412424, 8.380174, -4.263135, 0.4382886, 1.0583626, -0.8969527, 0.5603291, 0.040480047
1565632624628, 9.50715, 8.502319, -4.2272096, 0.4766089, 1.0207441, -0.8724516, 0.52624065, 0.06178534
1565632624637, 9.571522, 8.583751, -4.1721244, 0.72569096, 0.99578524, -0.8543421, 0.5049353, 0.082025364
1565632624638, 9.751652, 8.808882, -4.1242237, 0.6993457, 0.93695503, -0.8085357, 0.46552056, 0.08628642
1565632624647, 9.964677, 9.031619, -4.1218286, 0.85741705, 0.91062415, -0.7840346, 0.45380265, 0.09267801
1565632624648, 10.065071, 9.187295, -3.9877076, 0.9987232, 0.86619884, -0.7552725, 0.41545314, 0.08522116
1565632624657, 10.226485, 9.366921, -4.018843, 0.8310718, 0.8245422, -0.7222493, 0.3898868, 0.07882957
1565632624658, 10.228111, 9.378897, -4.047583, 0.51732427, 0.8049777, -0.70840085, 0.37710363, 0.0628506
1565632624667, 10.401954, 9.606423, -3.9757326, 0.33290774, 0.796436, -0.71159667, 0.35153726, 0.066046394
1565632624668, 10.586483, 9.855506, -3.8655617, -0.0071850587, 0.7904442, -0.7275756, 0.30679616, 0.036218993
1565632624677, 10.774775, 10.039923, -3.908672, -0.1341211, 0.80024266, -0.7499462, 0.2790993, 0.008522116
1565632624678, 10.824245, 10.1189575, -3.8344264, -0.26105714, 0.8193165, -0.77444726, 0.26738137, -0.004261058
1565632624687, 10.860873, 10.169253, -3.786526, -0.45505372, 0.8541993, -0.8064052, 0.2790993, -0.03834952
1565632624688, 10.954839, 10.269844, -3.7625759, -0.6179151, 0.8988143, -0.84688526, 0.29614353, -0.054328486
1565632624704, 10.975676, 10.257869, -3.8727467, -0.49337405, 0.9378811, -0.87777793, 0.32277513, -0.070307456
1565632624706, 10.949447, 10.207574, -3.9350173, -0.45984375, 0.9778652, -0.9044095, 0.36218992, -0.084155895
1565632624707, 10.809166, 10.075848, -3.908672, -0.1939966, 1.0085258, -0.9139969, 0.4133226, -0.10439592
1565632624708, 10.698925, 9.975257, -3.8679566, -0.011975098, 1.0083537, -0.89588743, 0.4527374, -0.0958738
1565632624718, 10.675919, 9.934542, -3.899092, 0.2778223, 1.0242788, -0.89375687, 0.49321744, -0.084155895
1565632624719, 10.630978, 9.867481, -3.923042, 0.51013917, 1.0180992, -0.8692558, 0.51984906, -0.10333065
1565632624727, 10.664854, 9.905801, -3.8847218, 0.7232959, 1.0241697, -0.850081, 0.5613944, -0.10546118
1565632624729, 10.730184, 9.958491, -3.896697, 0.88376224, 1.0086597, -0.8159926, 0.58056915, -0.12037488
1565632624738, 10.628374, 9.800421, -4.006868, 0.9268726, 0.980942, -0.78083885, 0.5773733, -0.13848437
1565632624740, 10.555586, 9.72857, -3.9733377, 0.99393314, 0.94592184, -0.7435546, 0.56885123, -0.13528858
1565632624749, 10.53037, 9.654325, -4.038003, 1.1735597, 0.881051, -0.6775082, 0.54648066, -0.13635385
1565632624754, 10.4373255, 9.584868, -3.9709425, 1.1400293, 0.83456653, -0.6327671, 0.52624065, -0.13848437
1565632624758, 10.4002905, 9.536968, -4.016448, 1.0394385, 0.7834685, -0.5837649, 0.50173956, -0.14594123
1565632624760, 10.379913, 9.534574, -3.999683, 0.9148975, 0.7361247, -0.5475459, 0.4708469, -0.14274544
1565632624768, 10.5241995, 9.704619, -4.0116577, 0.69695073, 0.6933996, -0.5187838, 0.44101948, -0.13102753
1565632624779, 10.592901, 9.7740755, -4.064348, 0.39757326, 0.6807232, -0.5070659, 0.4282363, -0.15126756
1565632624780, 10.7600975, 9.948912, -4.0978785, 0.07903565, 0.6671967, -0.5006743, 0.4165184, -0.14487597
1565632624780, 10.871166, 10.090218, -4.030818, -0.34967285, 0.6832739, -0.5209143, 0.4079963, -0.17044231
1565632624791, 11.103971, 10.324929, -4.030818, -0.6682105, 0.708774, -0.5486112, 0.4101268, -0.18216023
1565632624791, 11.282372, 10.511742, -3.9829175, -0.9651929, 0.7332495, -0.5795039, 0.40053943, -0.2034655
1565632624798, 11.612859, 10.880574, -3.9134622, -1.0753639, 0.7741051, -0.61891866, 0.39840892, -0.2396845
1565632624800, 11.892691, 11.098521, -4.028423, -1.4250367, 0.8405645, -0.6785734, 0.41438788, -0.2727077
1565632624808, 12.0845995, 11.254197, -4.1050634, -1.590293, 0.90736085, -0.7307714, 0.44101948, -0.30786142
1565632624809, 12.067557, 11.268567, -4.0116577, -1.5974782, 0.9698687, -0.78296936, 0.4644553, -0.33449304
1565632624819, 11.948132, 11.156001, -3.9781277, -1.5735279, 1.0520964, -0.84688526, 0.5091964, -0.36112466
1565632624821, 11.767091, 11.01709, -3.9278321, -1.2885206, 1.093182, -0.8692558, 0.5422196, -0.38136467
1565632624829, 11.696806, 11.00751, -3.8056862, -1.0801538, 1.1454931, -0.89375687, 0.5933523, -0.4016047
1565632624830, 11.548315, 10.861414, -3.8464015, -0.77359134, 1.1728213, -0.902279, 0.6221144, -0.41758367
1565632624842, 11.350178, 10.6817875, -3.8152664, -0.41194338, 1.1834825, -0.88949585, 0.64341974, -0.44208476
1565632624843, 11.23529, 10.559642, -3.8368216, -0.06706055, 1.1860417, -0.8692558, 0.6679208, -0.4527374
1565632624849, 10.949204, 10.27224, -3.774551, 0.34488282, 1.1549687, -0.8202536, 0.67324716, -0.45593318
1565632624851, 10.834841, 10.154883, -3.7074904, 0.72569096, 1.1333042, -0.77444726, 0.67963874, -0.47191215
1565632624859, 10.559234, 9.884246, -3.6045046, 0.8981324, 1.0799423, -0.70627034, 0.6743124, -0.4612595
1565632624861, 10.486612, 9.807606, -3.535049, 1.1328443, 1.0211914, -0.63383234, 0.644485, -0.47510794
1565632624870, 10.28854, 9.604029, -3.4895437, 1.1999048, 0.9518965, -0.56245965, 0.60080916, -0.47830373
1565632624872, 10.148865, 9.505833, -3.3386574, 1.22146, 0.8784176, -0.4889564, 0.54648066, -0.48363006
1565632624880, 10.122009, 9.472302, -3.3817677, 1.1376343, 0.8035131, -0.42290998, 0.4857606, -0.48043427
1565632624881, 10.089868, 9.457932, -3.3697927, 0.9987232, 0.753563, -0.37071204, 0.42397526, -0.5006743
1565632624890, 10.048216, 9.465117, -3.271597, 0.8214917, 0.6782381, -0.3089267, 0.36432046, -0.48149952
1565632624892, 10.038466, 9.489068, -3.1901662, 0.7424561, 0.6315006, -0.2428803, 0.32384038, -0.48469532
1565632624901, 10.172002, 9.639954, -3.2236965, 0.38559815, 0.601799, -0.20133498, 0.28549087, -0.49002165
1565632624904, 10.335873, 9.829161, -3.1949563, 0.100590825, 0.5699563, -0.16192019, 0.25033715, -0.4857606
1565632624910, 10.402158, 9.896221, -3.1901662, -0.30416748, 0.5712152, -0.15020229, 0.21837921, -0.50600064
1565632624912, 10.519311, 9.989627, -3.2428565, -0.5891748, 0.5678389, -0.13528858, 0.16831179, -0.5251754
1565632624920, 10.573205, 10.037527, -3.1901662, -0.92926764, 0.5690686, -0.1470065, 0.14807177, -0.5294364
1565632624922, 10.607198, 10.008787, -3.293152, -1.22146, 0.5713443, -0.1587244, 0.12357068, -0.53476274
1565632624930, 10.605495, 9.987232, -3.2141163, -1.5495777, 0.5692032, -0.18322548, 0.094808534, -0.5305017
1565632624933, 10.579896, 9.924961, -3.2524366, -1.6884888, 0.5656203, -0.21411815, 0.070307456, -0.5187838
1565632624941, 10.677876, 9.975257, -3.3554225, -1.8034497, 0.56096673, -0.2428803, 0.0628506, -0.50173956
1565632624943, 10.897238, 10.154883, -3.412903, -1.9950514, 0.58712214, -0.27696875, 0.066046394, -0.5134575
1565632624952, 11.100241, 10.30098, -3.5134938, -2.1818628, 0.5928443, -0.30786142, 0.070307456, -0.50173956
1565632624954, 11.166929, 10.40157, -3.4440382, -2.1555176, 0.6194208, -0.36005938, 0.080960095, -0.49747851
1565632624960, 11.049514, 10.28661, -3.422483, -2.1363575, 0.64078027, -0.4016047, 0.0958738, -0.49002165
1565632624962, 11.058666, 10.27224, -3.4631984, -2.186653, 0.6644826, -0.44315, 0.0958738, -0.4857606
1565632624974, 10.98642, 10.181229, -3.4775686, -2.2249732, 0.70080316, -0.49215218, 0.11824436, -0.48469532
1565632624976, 10.876903, 10.114168, -3.3817677, -2.1387525, 0.72927374, -0.5390238, 0.13635385, -0.47191215
1565632624981, 10.743701, 9.960887, -3.415298, -2.1315675, 0.7718288, -0.59228706, 0.16192019, -0.4676511
1565632624983, 10.652045, 9.927357, -3.3051271, -1.9974464, 0.81635475, -0.6508766, 0.17044231, -0.46232477
1565632624991, 10.5402975, 9.82437, -3.3314724, -1.8657203, 0.8611957, -0.7105314, 0.18109496, -0.45167214
1565632624994, 10.4526415, 9.778865, -3.293152, -1.6693287, 0.89167535, -0.7552725, 0.1736381, -0.44101948
1565632625001, 10.110749, 9.517808, -3.1853762, -1.22146, 0.9118427, -0.7797736, 0.16724652, -0.44208476
1565632625004, 9.983986, 9.4435625, -3.1494508, -0.76161623, 0.9259949, -0.8000136, 0.16618125, -0.43569317
1565632625011, 9.760072, 9.285491, -2.9865894, -0.34488282, 0.93777645, -0.8117315, 0.14913702, -0.44528055
1565632625013, 9.583038, 9.137, -2.8883936, 0.083825685, 0.9193448, -0.80533993, 0.11504856, -0.4282363
1565632625023, 9.401059, 8.969349, -2.802173, 0.2802173, 0.9237004, -0.81066626, 0.094808534, -0.43249738
1565632625025, 9.382632, 8.928633, -2.7854078, 0.7448511, 0.9082721, -0.793622, 0.058589544, -0.43782368
1565632625032, 9.386244, 8.919053, -2.7638526, 0.95561284, 0.8935315, -0.7765778, 0.02876214, -0.44101948
1565632625035, 9.302906, 8.806487, -2.7015822, 1.3004956, 0.8688869, -0.74675035, 0.0010652645, -0.44421527
1565632625043, 9.259428, 8.717872, -2.7231374, 1.5232325, 0.8479251, -0.71585774, -0.039414786, -0.4527374
1565632625045, 9.290489, 8.677156, -2.8380983, 1.7220191, 0.7991202, -0.65726817, -0.06711166, -0.4495416
1565632625052, 9.111395, 8.420889, -2.8931837, 1.9327809, 0.76069283, -0.6018744, -0.12357068, -0.44847634
1565632625054, 9.130161, 8.408914, -2.8596535, 2.1148024, 0.7164448, -0.54435015, -0.16192019, -0.43675843
1565632625061, 9.09634, 8.310719, -2.9410841, 2.2417383, 0.67358834, -0.47617322, -0.21731395, -0.42397526
1565632625063, 8.970606, 8.229287, -2.8285182, 2.179468, 0.6354961, -0.41864893, -0.24394555, -0.4111921
1565632625073, 9.085372, 8.320298, -2.9722195, 2.1171973, 0.58513284, -0.36218992, -0.26418558, -0.37603834
1565632625074, 8.931394, 8.162227, -2.9841945, 2.059717, 0.5365941, -0.30679616, -0.257794, -0.3568636
1565632625082, 8.989278, 8.296348, -2.9937747, 1.7363893, 0.48309597, -0.26418558, -0.24927188, -0.31851408
1565632625083, 8.974399, 8.363408, -2.8788135, 1.5184424, 0.42814356, -0.22903186, -0.20772657, -0.29614353
1565632625093, 9.108874, 8.54064, -2.8788135, 1.3196558, 0.39083737, -0.2130529, -0.18002969, -0.27377295
1565632625096, 9.250698, 8.756192, -2.8309133, 0.9436377, 0.37250912, -0.20453078, -0.15020229, -0.2727077
1565632625102, 9.435018, 8.962164, -2.8716285, 0.6730005, 0.37319088, -0.21518342, -0.13422333, -0.27377295
1565632625104, 9.546467, 9.086704, -2.8931837, 0.44307864, 0.38314736, -0.22796659, -0.12783173, -0.28016454
1565632625112, 9.758383, 9.307046, -2.914739, 0.3305127, 0.42207465, -0.24394555, -0.15446335, -0.30786142
1565632625113, 9.738123, 9.323812, -2.7830129, 0.3903882, 0.43619424, -0.2545982, -0.16937704, -0.3110572
1565632625122, 9.7194605, 9.290281, -2.804568, 0.5412744, 0.43393022, -0.25992453, -0.165116, -0.3057309
1565632625123, 9.67344, 9.256751, -2.7686427, 0.47181886, 0.44714466, -0.27057716, -0.16724652, -0.314253
1565632625132, 9.7250595, 9.326206, -2.7183473, 0.45744875, 0.4597761, -0.2759035, -0.16192019, -0.330232
1565632625142, 9.673504, 9.259146, -2.7494826, 0.5340894, 0.45640084, -0.2790993, -0.15978967, -0.32384038
1565632625143, 9.52999, 9.1202345, -2.684817, 0.6586304, 0.44129473, -0.27164245, -0.15765914, -0.30999196
1565632625144, 9.435308, 9.038804, -2.5818312, 0.81191164, 0.4405329, -0.26525086, -0.16618125, -0.30999196
1565632625152, 9.286455, 8.8879175, -2.5387208, 0.8933423, 0.41103336, -0.23542345, -0.16831179, -0.29188246
1565632625153, 9.402957, 8.962164, -2.6057813, 1.1424243, 0.41806707, -0.24074976, -0.20026971, -0.27696875
1565632625162, 9.387707, 8.950189, -2.5075855, 1.3172607, 0.40811032, -0.19920446, -0.22264028, -0.27803403
1565632625163, 9.371772, 8.909473, -2.5459058, 1.4034815, 0.4241532, -0.16937704, -0.26631612, -0.28336033
1565632625172, 9.532431, 9.034014, -2.6177564, 1.5495777, 0.43764743, -0.13422333, -0.29614353, -0.29294774
1565632625173, 9.511276, 8.976534, -2.6967921, 1.6166383, 0.42615506, -0.09161274, -0.3153183, -0.27164245
1565632625182, 9.512605, 8.952583, -2.6656568, 1.7986598, 0.44843206, -0.05752428, -0.350472, -0.27377295
1565632625184, 9.466529, 8.945398, -2.5938063, 1.6932789, 0.45711887, -0.015978966, -0.36964676, -0.26844665
1565632625192, 9.443728, 8.883128, -2.6896071, 1.7435743, 0.4758514, 0.007456851, -0.38456047, -0.28016454
1565632625193, 9.365774, 8.796907, -2.680027, 1.7747096, 0.48148185, 0.05219796, -0.39627838, -0.26844665
1565632625202, 9.278855, 8.679551, -2.6967921, 1.8681153, 0.5032019, 0.08948222, -0.4133226, -0.2727077
1565632625203, 9.19052, 8.590936, -2.6896071, 1.8513502, 0.52329755, 0.13528858, -0.43356264, -0.25992453
1565632625212, 9.140997, 8.51669, -2.7399025, 1.8753004, 0.52400726, 0.16618125, -0.43356264, -0.2428803
1565632625213, 9.027381, 8.413704, -2.8093581, 1.6765138, 0.5262676, 0.20240025, -0.4261058, -0.23329292
1565632625223, 9.1664, 8.52627, -3.0081446, 1.5088624, 0.5098757, 0.21837921, -0.41545314, -0.19920446
1565632625224, 9.296756, 8.684341, -3.06802, 1.2645704, 0.46847054, 0.23435818, -0.3685815, -0.16937704
1565632625235, 9.417636, 8.837623, -3.0728102, 1.0705738, 0.42903847, 0.25033715, -0.30146983, -0.17470337
1565632625237, 9.471751, 8.928633, -3.0201197, 0.93405765, 0.39747214, 0.25885928, -0.23542345, -0.18855181
1565632625244, 9.401491, 8.885523, -2.9841945, 0.728086, 0.35819033, 0.25992453, -0.16831179, -0.18002969
1565632625245, 9.34402, 8.871153, -2.8836036, 0.5460645, 0.3354788, 0.25566345, -0.12463594, -0.17789917
1565632625254, 9.2109375, 8.722662, -2.924319, 0.4526587, 0.32806167, 0.25353295, -0.094808534, -0.18535602
1565632625255, 9.008681, 8.519085, -2.8907888, 0.4742139, 0.31485188, 0.23861924, -0.096939065, -0.18109496
1565632625265, 8.812773, 8.329878, -2.8620484, 0.2945874, 0.3041083, 0.23542345, -0.08948222, -0.17044231
1565632625267, 8.715948, 8.222102, -2.8836036, 0.22273682, 0.27881047, 0.21944448, -0.07563378, -0.15446335
1565632625274, 8.49341, 7.9682302, -2.936294, 0.15328126, 0.251522, 0.19707392, -0.07243799, -0.13848437
1565632625274, 8.415352, 7.8556643, -3.0177248, -0.0047900393, 0.22150841, 0.17257284, -0.06924219, -0.12037488
1565632625284, 8.497208, 7.9083548, -3.1063404, 0.10538086, 0.19378154, 0.15020229, -0.054328486, -0.10972224
1565632625285, 8.600097, 7.9610453, -3.2500417, 0.14370118, 0.17262214, 0.13315806, -0.037284255, -0.10333065
1565632625294, 8.686311, 8.049661, -3.2572267, 0.21315674, 0.15746108, 0.1257012, -0.024501082, -0.09161274
1565632625295, 8.470135, 7.822134, -3.2284865, 0.366438, 0.14326124, 0.12676647, -0.00958738, -0.066046394
1565632625304, 8.522642, 7.846084, -3.3051271, 0.3879932, 0.13491902, 0.1257012, 0.0010652645, -0.049002163
1565632625305, 8.312818, 7.592212, -3.3482375, 0.5005591, 0.1443227, 0.14168017, 0.015978966, -0.022370555
1565632625314, 8.218439, 7.472461, -3.3650026, 0.6179151, 0.15626381, 0.15446335, 0.023435818, 0.0031957934
1565632625317, 8.201459, 7.4748564, -3.302732, 0.6945557, 0.1853958, 0.17470337, 0.035153728, 0.051132694
1565632625325, 8.228568, 7.5083866, -3.307522, 0.62749517, 0.20871845, 0.18961707, 0.041545313, 0.07669904
1565632625326, 8.27367, 7.510782, -3.427273, 0.54366946, 0.21371765, 0.18216023, 0.04261058, 0.10333065
1565632625334, 8.3804865, 7.6281376, -3.4608033, 0.25866213, 0.23687467, 0.19707392, 0.03834952, 0.1257012
1565632625338, 8.55898, 7.781419, -3.5566041, 0.23710695, 0.24777877, 0.19387813, 0.05006743, 0.14594123
1565632625346, 8.68135, 7.951465, -3.4823585, 0.11496094, 0.2584249, 0.17789917, 0.07563378, 0.17150758
1565632625347, 8.682533, 7.9706254, -3.4416432, 0.102985844, 0.27311727, 0.17150758, 0.10013486, 0.18748654
1565632625356, 8.793533, 8.080796, -3.4679885, 0.0023950196, 0.2953627, 0.165116, 0.112918034, 0.21731395
1565632625357, 8.88397, 8.178992, -3.4679885, 0.045505375, 0.30937636, 0.15126756, 0.14274544, 0.22903186
1565632625366, 8.923374, 8.238868, -3.427273, 0.038320314, 0.3300068, 0.14594123, 0.14913702, 0.25566345
1565632625367, 9.019814, 8.339458, -3.432063, 0.17723145, 0.35365495, 0.15339808, 0.16831179, 0.27057716
1565632625376, 9.268662, 8.614885, -3.403323, 0.3305127, 0.37675738, 0.1555286, 0.18216023, 0.2908172
1565632625377, 9.32613, 8.739427, -3.2380664, 0.33769777, 0.38123372, 0.1555286, 0.16831179, 0.30466563
1565632625390, 9.628015, 9.038804, -3.297942, 0.34967285, 0.36706054, 0.16618125, 0.14594123, 0.29294774
1565632625391, 9.793237, 9.2184305, -3.2811768, 0.4023633, 0.3550528, 0.19068234, 0.10865697, 0.2790993
1565632625397, 9.867615, 9.3453665, -3.1231055, 0.5292993, 0.3462519, 0.21837921, 0.06391586, 0.2609898
1565632625398, 10.005617, 9.489068, -3.1135256, 0.613125, 0.34189013, 0.24074976, 0.02130529, 0.24181503
1565632625407, 9.990696, 9.515413, -3.0057497, 0.48618898, 0.34432438, 0.26631612, -0.020240024, 0.21731395
1565632625408, 9.976626, 9.5561285, -2.8548634, 0.25147706, 0.3515518, 0.2790993, -0.04580637, 0.20879184
1565632625418, 9.898383, 9.465117, -2.8955786, 0.07185059, 0.35457468, 0.29294774, -0.0628506, 0.18961707
1565632625419, 9.716939, 9.354947, -2.6273365, -0.031135255, 0.35650247, 0.28655612, -0.07563378, 0.19813919
1565632625428, 9.465812, 9.096285, -2.5962012, -0.34488282, 0.3589246, 0.28229508, -0.068176925, 0.21092236
1565632625429, 9.546148, 9.19927, -2.4908204, -0.5460645, 0.33869714, 0.2545982, -0.06711166, 0.2130529
1565632625438, 9.528463, 9.172925, -2.4764502, -0.7185059, 0.32351258, 0.23435818, -0.058589544, 0.21518342
1565632625439, 9.738029, 9.362132, -2.560276, -0.79035646, 0.30639827, 0.20985709, -0.051132694, 0.21731395
1565632625449, 9.7597, 9.407638, -2.42855, -0.92208254, 0.28191698, 0.1917476, -0.036218993, 0.2034655
1565632625450, 9.734195, 9.390872, -2.3926246, -0.91729254, 0.25891185, 0.15126756, -0.010652645, 0.20985709
1565632625459, 9.692572, 9.3309965, -2.430945, -0.98435307, 0.25303113, 0.13635385, 0.0063915867, 0.2130529
1565632625460, 9.592577, 9.242381, -2.43813, -0.80712163, 0.24366863, 0.09054748, 0.025566347, 0.2247708
1565632625469, 9.485274, 9.129815, -2.4525, -0.7759864, 0.24771693, 0.08841695, 0.033023197, 0.22903186
1565632625470, 9.473676, 9.110655, -2.5099807, -0.6682105, 0.25962967, 0.08628642, 0.04474111, 0.24074976
1565632625480, 9.543226, 9.19448, -2.5004005, -0.53169435, 0.27183035, 0.06924219, 0.056459017, 0.25672874
1565632625481, 9.5174265, 9.15616, -2.567461, -0.39278322, 0.27375638, 0.05752428, 0.049002163, 0.26312032
1565632625489, 9.624319, 9.244776, -2.6488917, -0.38080812, 0.2684509, 0.054328486, 0.039414786, 0.25992453
1565632625490, 9.74788, 9.376502, -2.6464968, -0.31374758, 0.2647691, 0.06391586, 0.025566347, 0.25566345
1565632625499, 9.722244, 9.323812, -2.7494826, -0.17004639, 0.26792195, 0.05539375, 0.0063915867, 0.26205507
1565632625500, 9.792326, 9.400452, -2.7422974, -0.031135255, 0.28108853, 0.08628642, -0.008522116, 0.26738137
1565632625509, 9.7494135, 9.371712, -2.687212, -0.031135255, 0.28744185, 0.0958738, -0.05006743, 0.26631612
1565632625510, 9.756084, 9.376502, -2.692002, -0.12454102, 0.29134932, 0.113983296, -0.04580637, 0.26418558
1565632625519, 9.994702, 9.594449, -2.799778, -0.043110352, 0.30079153, 0.11930962, -0.07669904, 0.26525086
1565632625520, 9.985462, 9.618399, -2.682422, -0.021555176, 0.31727, 0.13635385, -0.1107875, 0.26418558
1565632625529, 9.9060755, 9.503438, -2.794988, -0.05508545, 0.3390973, 0.14913702, -0.1438107, 0.26844665
1565632625530, 9.958263, 9.5633135, -2.7758276, -0.06945557, 0.3729308, 0.16937704, -0.19281286, 0.27057716
1565632625540, 10.0884075, 9.704619, -2.7518775, -0.15328126, 0.39833203, 0.18535602, -0.2247708, 0.27164245
1565632625541, 10.201138, 9.843531, -2.668052, -0.22273682, 0.42052588, 0.18535602, -0.2609898, 0.2727077
1565632625552, 10.339772, 9.965676, -2.7111623, -0.49576905, 0.44154024, 0.18535602, -0.30040458, 0.26525086
1565632625553, 10.412962, 10.027947, -2.6896071, -0.79754156, 0.4469924, 0.16831179, -0.32490566, 0.25672874
1565632625557, 10.530727, 10.142908, -2.6441016, -1.0130934, 0.44366825, 0.13741912, -0.3387541, 0.2514024
1565632625559, 10.651017, 10.233919, -2.694397, -1.2046949, 0.44521937, 0.11717909, -0.34514567, 0.25566345
1565632625568, 10.858135, 10.442286, -2.6009912, -1.4465919, 0.42746451, 0.07137272, -0.3334278, 0.257794
1565632625569, 10.917365, 10.514136, -2.5171657, -1.5184424, 0.40006036, 0.03195793, -0.3121225, 0.24820662
1565632625578, 11.091775, 10.688972, -2.4740553, -1.6286134, 0.37638372, -0.0053263223, -0.2790993, 0.25246766
1565632625579, 11.132074, 10.741663, -2.411785, -1.6501685, 0.3482421, -0.046871636, -0.23861924, 0.24927188
1565632625588, 11.27828, 10.887759, -2.430945, -1.6573536, 0.32316163, -0.0958738, -0.1917476, 0.24181503
1565632625589, 11.487998, 11.122471, -2.3590944, -1.6429834, 0.30301672, -0.14274544, -0.13954964, 0.22796659
1565632625605, 11.561125, 11.165582, -2.3806496, -1.8226099, 0.30493554, -0.19387813, -0.10226539, 0.21198763
1565632625605, 11.504605, 11.136841, -2.3902297, -1.6166383, 0.3191156, -0.2396845, -0.07989483, 0.1949434
1565632625608, 11.226243, 10.902129, -2.304009, -1.3651612, 0.35025498, -0.28016454, -0.06711166, 0.19920446
1565632625609, 11.175369, 10.894944, -2.2513185, -1.0585986, 0.36435628, -0.30999196, -0.043675844, 0.18642128
1565632625625, 11.075161, 10.803933, -2.323169, -0.732876, 0.38010094, -0.32384038, -0.053263225, 0.1917476
1565632625625, 10.910061, 10.653048, -2.308799, -0.45984375, 0.38716024, -0.3323625, -0.05539375, 0.19068234
1565632625629, 10.743851, 10.485396, -2.3423293, -0.016765138, 0.3791818, -0.3153183, -0.06178534, 0.20133498
1565632625630, 10.699683, 10.43031, -2.3686745, 0.28500733, 0.3691368, -0.29614353, -0.082025364, 0.20453078
1565632625645, 10.756759, 10.442286, -2.5171657, 0.5748047, 0.33464056, -0.25246766, -0.101200126, 0.1949434
1565632625646, 10.892977, 10.574012, -2.4836354, 0.82388675, 0.30281067, -0.20133498, -0.11824436, 0.19281286
1565632625649, 10.927994, 10.5764065, -2.5387208, 1.0562036, 0.28007543, -0.1438107, -0.1555286, 0.18322548
1565632625651, 11.067853, 10.727293, -2.5123756, 1.0538087, 0.27964965, -0.10333065, -0.19707392, 0.16937704
1565632625665, 11.081708, 10.729688, -2.5123756, 1.1687696, 0.28805706, -0.03195793, -0.24501082, 0.14807177
1565632625666, 10.957137, 10.619517, -2.4453151, 1.1424243, 0.33934483, 0.008522116, -0.3057309, 0.1470065
1565632625669, 10.848084, 10.5692215, -2.2680836, 0.91010743, 0.37047625, 0.058589544, -0.34194988, 0.12996227
1565632625670, 10.863514, 10.593172, -2.2872438, 0.7544312, 0.41162926, 0.09054748, -0.38136467, 0.1257012
1565632625684, 10.83106, 10.590776, -2.2201831, 0.46702883, 0.44504216, 0.11930962, -0.4133226, 0.113983296
1565632625685, 10.806278, 10.574012, -2.2201831, 0.19160157, 0.47282144, 0.12676647, -0.44101948, 0.113983296
1565632625690, 10.845389, 10.605147, -2.2656887, -0.14130616, 0.490954, 0.128897, -0.46232477, 0.10333065
1565632625692, 10.858364, 10.612332, -2.2632935, -0.39996827, 0.5199636, 0.1257012, -0.49534798, 0.0958738
1565632625703, 11.027724, 10.7799835, -2.2632935, -0.5292993, 0.51387393, 0.10013486, -0.49747851, 0.080960095
1565632625706, 10.90135, 10.665023, -2.1579127, -0.66342044, 0.515424, 0.09054748, -0.50173956, 0.07563378
1565632625712, 10.998847, 10.741663, -2.2369483, -0.7664063, 0.4793702, 0.060720075, -0.47297743, 0.049002163
1565632625715, 11.118689, 10.842254, -2.2848487, -0.92208254, 0.44382295, 0.037284255, -0.44101948, 0.033023197
1565632625723, 11.16407, 10.890154, -2.2393434, -1.0130934, 0.40873688, 0.002130529, -0.4079963, 0.024501082
1565632625724, 11.056482, 10.791959, -2.1722827, -1.0298585, 0.35504004, -0.03089267, -0.3536678, 0.004261058
1565632625735, 11.08096, 10.844649, -2.088457, -0.9053174, 0.31718954, -0.056459017, -0.3121225, -0.0010652645
1565632625736, 11.146201, 10.887759, -2.1770728, -0.977168, 0.2902704, -0.10226539, -0.2695119, -0.034088463
1565632625741, 11.086238, 10.830278, -2.186653, -0.91010743, 0.27329174, -0.12996227, -0.23116238, -0.066046394
1565632625743, 11.027988, 10.775193, -2.2513185, -0.6658155, 0.28404635, -0.15446335, -0.22050974, -0.09054748
1565632625752, 10.800515, 10.564431, -2.208208, -0.40954837, 0.279335, -0.15978967, -0.19813919, -0.11504856
1565632625753, 10.608517, 10.37762, -2.201023, -0.033530276, 0.27715307, -0.1438107, -0.19068234, -0.14061491
1565632625762, 10.464298, 10.209969, -2.2704787, 0.32093263, 0.2853199, -0.13635385, -0.18855181, -0.165116
1565632625763, 10.229561, 9.953702, -2.3423293, 0.28500733, 0.28957564, -0.12463594, -0.18429075, -0.18535602
1565632625772, 9.984533, 9.697434, -2.299219, 0.60354495, 0.29911175, -0.10226539, -0.19281286, -0.20453078
1565632625773, 9.791877, 9.460327, -2.4141798, 0.7448511, 0.29489744, -0.082025364, -0.2034655, -0.19707392
1565632625783, 9.721195, 9.354947, -2.5267458, 0.7759864, 0.2993071, -0.06391586, -0.2130529, -0.20026971
1565632625784, 9.518471, 9.15616, -2.5411158, 0.5556446, 0.31440464, -0.06391586, -0.23648871, -0.19707392
1565632625790, 9.434678, 9.045989, -2.6129665, 0.5963599, 0.30599615, -0.05965481, -0.23435818, -0.18748654
1565632625796, 9.465067, 9.019644, -2.8141482, 0.5604346, 0.3032881, -0.051132694, -0.24181503, -0.17576863
1565632625804, 9.368598, 8.892708, -2.8859987, 0.6011499, 0.28933454, -0.041545313, -0.23542345, -0.16298546
1565632625805, 9.300723, 8.772957, -2.9698243, 0.847837, 0.2902391, -0.03195793, -0.24820662, -0.1470065
1565632625817, 9.180548, 8.646021, -2.9889846, 0.7711963, 0.29547217, -0.007456851, -0.26312032, -0.13422333
1565632625818, 9.229977, 8.650811, -3.1231055, 0.7759864, 0.3209541, 0.004261058, -0.30040458, -0.112918034
1565632625822, 9.044985, 8.428074, -3.1901662, 0.7759864, 0.32995868, 0.00958738, -0.3174488, -0.08948222
1565632625825, 9.161893, 8.51669, -3.3051271, 0.6945557, 0.3400013, 0.0053263223, -0.33449304, -0.060720075
1565632625834, 9.418832, 8.753797, -3.4248781, 0.5963599, 0.32753372, 0.002130529, -0.32384038, -0.049002163
1565632625835, 9.566511, 8.911868, -3.4631984, 0.32093263, 0.30053297, 0.0063915867, -0.29827404, -0.036218993
1565632625845, 9.713496, 9.048384, -3.515889, 0.3424878, 0.2546606, -0.0031957934, -0.2514024, -0.040480047
1565632625846, 9.92122, 9.230406, -3.6332448, 0.17244141, 0.20018187, -0.008522116, -0.19707392, -0.034088463
1565632625855, 10.21145, 9.551338, -3.6092947, 0.13651612, 0.14259432, -0.020240024, -0.13422333, -0.043675844
1565632625857, 10.179442, 9.489068, -3.67875, 0.21315674, 0.09778408, -0.026631612, -0.080960095, -0.0479369
1565632625865, 10.413522, 9.764495, -3.6116896, 0.22752686, 0.07447715, -0.027696876, -0.03834952, -0.05752428
1565632625866, 10.34036, 9.69504, -3.5853443, 0.27303225, 0.0558934, -0.02130529, 0.007456851, -0.051132694
1565632625874, 10.402327, 9.769285, -3.558999, 0.32093263, 0.07124541, -0.01917476, 0.03195793, -0.060720075
1565632625875, 10.416276, 9.766891, -3.6068995, 0.31135255, 0.08490766, -0.007456851, 0.05539375, -0.06391586
1565632625884, 10.339308, 9.666299, -3.6500099, 0.37601808, 0.09639908, 0.0031957934, 0.07882957, -0.05539375
1565632625885, 10.219902, 9.570498, -3.5661843, 0.366438, 0.117980145, 0.013848438, 0.08948222, -0.07563378
1565632625898, 10.245339, 9.601634, -3.5542092, 0.3784131, 0.09148879, 0.025566347, 0.068176925, -0.05539375
1565632625900, 10.161839, 9.551338, -3.4416432, 0.43589357, 0.10014053, 0.03834952, 0.07563378, -0.053263225
1565632625901, 10.254057, 9.644744, -3.4512234, 0.4622388, 0.101580665, 0.058589544, 0.05539375, -0.06178534
1565632625902, 10.212617, 9.620794, -3.3937428, 0.46942386, 0.119019166, 0.0777643, 0.037284255, -0.082025364
1565632625915, 10.148583, 9.620794, -3.2093263, 0.366438, 0.12479971, 0.10546118, 0.01917476, -0.06391586
1565632625916, 10.037861, 9.501043, -3.2117214, 0.4167334, 0.14406298, 0.1257012, 0.0031957934, -0.070307456
1565632625923, 9.776208, 9.273516, -3.0704153, 0.38559815, 0.17713204, 0.16192019, -0.025566347, -0.06711166
1565632625924, 9.737031, 9.268726, -2.955454, 0.40715334, 0.20165318, 0.18855181, -0.034088463, -0.0628506
1565632625938, 9.682835, 9.242381, -2.8596535, 0.39757326, 0.23098806, 0.21624869, -0.05006743, -0.06391586
1565632625939, 9.69506, 9.259146, -2.8644435, 0.23950197, 0.24359874, 0.23009712, -0.053263225, -0.05965481
1565632625944, 9.649378, 9.24717, -2.7566676, 0.033530276, 0.25912434, 0.24607609, -0.05006743, -0.06391586
1565632625945, 9.724032, 9.350157, -2.6704469, 0.009580079, 0.26341343, 0.2514024, -0.04580637, -0.06391586
1565632625958, 9.6539545, 9.292676, -2.6081765, -0.20597169, 0.2693961, 0.2609898, -0.037284255, -0.05539375
1565632625959, 9.560502, 9.216036, -2.5411158, -0.102985844, 0.29021174, 0.28016454, -0.0479369, -0.058589544
1565632625964, 9.608928, 9.259146, -2.567461, -0.08861572, 0.2956776, 0.2908172, -0.025566347, -0.046871636
1565632625965, 9.636384, 9.309442, -2.4836354, -0.16046631, 0.31323484, 0.30466563, -0.022370555, -0.06924219
1565632625972, 9.660612, 9.307046, -2.5818312, -0.20118165, 0.32474148, 0.31851408, -0.007456851, -0.0628506
1565632625974, 9.8443775, 9.460327, -2.6704469, -0.53169435, 0.32183155, 0.3089267, 0.035153728, -0.083090626
1565632625983, 10.028041, 9.630374, -2.7207422, -0.6442603, 0.32151935, 0.30253512, 0.070307456, -0.083090626
1565632625984, 10.045194, 9.630374, -2.7494826, -0.7759864, 0.33350945, 0.294013, 0.111852765, -0.1107875
1565632625993, 10.078233, 9.644744, -2.811753, -0.80233157, 0.3484229, 0.2972088, 0.14168017, -0.113983296
1565632625994, 9.944167, 9.510623, -2.7806177, -0.8382569, 0.365263, 0.30146983, 0.17044231, -0.11611383
1565632626003, 9.97671, 9.539363, -2.7854078, -0.8813672, 0.37915936, 0.29614353, 0.19281286, -0.13741912
1565632626004, 9.813059, 9.3381815, -2.816543, -1.0777588, 0.38990718, 0.2972088, 0.2130529, -0.13528858
1565632626019, 9.729975, 9.268726, -2.7542725, -1.0849439, 0.3874313, 0.2908172, 0.21731395, -0.13528858
1565632626019, 9.623553, 9.125025, -2.8309133, -1.1543995, 0.37927306, 0.28016454, 0.21624869, -0.13635385
1565632626026, 9.630638, 9.0891, -2.8764186, -1.3651612, 0.37222418, 0.27483824, 0.21411815, -0.13102753
1565632626027, 9.473841, 8.911868, -2.8836036, -1.4202466, 0.3474869, 0.26205507, 0.19707392, -0.11504856
1565632626037, 9.423035, 8.859178, -2.8093581, -1.5543678, 0.3221734, 0.24820662, 0.1736381, -0.10972224
1565632626038, 9.496211, 8.902288, -2.8979738, -1.590293, 0.29864097, 0.23435818, 0.14061491, -0.12037488
1565632626043, 9.498362, 8.899893, -2.912344, -1.590293, 0.270638, 0.21624869, 0.112918034, -0.11717909
1565632626044, 9.53644, 8.897498, -2.924319, -1.7962648, 0.23993057, 0.2034655, 0.066046394, -0.10865697
1565632626059, 9.441649, 8.772957, -2.955454, -1.8561403, 0.21262102, 0.17576863, 0.05006743, -0.10865697
1565632626061, 9.424149, 8.763377, -2.9722195, -1.7842896, 0.18860295, 0.16085494, 0.00958738, -0.098004326
1565632626065, 9.393927, 8.698711, -3.0057497, -1.8824854, 0.14316615, 0.12144015, -0.0053263223, -0.07563378
1565632626066, 9.167459, 8.475974, -2.926714, -1.9064356, 0.11099218, 0.09374327, -0.014913702, -0.05752428
1565632626077, 9.235621, 8.523875, -3.0009596, -1.9064356, 0.06414626, 0.051132694, -0.020240024, -0.033023197
1565632626078, 9.29243, 8.583751, -3.0177248, -1.8872755, 0.03314325, 0.03195793, -0.002130529, -0.008522116
1565632626086, 9.391355, 8.684341, -3.046465, -1.8705103, 0.027491255, -0.011717909, 0.017044231, 0.018109497
1565632626087, 9.357662, 8.646021, -3.1326857, -1.7315992, 0.063871466, -0.02876214, 0.03089267, 0.0479369
1565632626100, 9.4139385, 8.739427, -3.1302907, -1.5639478, 0.09907532, -0.0479369, 0.058589544, 0.06391586
1565632626102, 9.471748, 8.832832, -3.187771, -1.2382251, 0.14179626, -0.05219796, 0.094808534, 0.09161274
1565632626105, 9.658346, 9.079519, -3.1374757, -1.0011182, 0.16131635, -0.049002163, 0.1107875, 0.10652645
1565632626107, 9.932186, 9.350157, -3.2572267, -0.7831714, 0.17146789, -0.035153728, 0.14061491, 0.09161274
1565632626120, 9.827066, 9.295072, -3.1398706, -0.5604346, 0.16333668, -0.015978966, 0.14274544, 0.0777643
1565632626121, 9.84079, 9.326206, -3.1015503, -0.49337405, 0.16339226, 0.024501082, 0.14274544, 0.07563378
1565632626127, 9.673868, 9.187295, -3.0201197, -0.23710695, 0.15478626, 0.05539375, 0.12250541, 0.07669904
1565632626129, 9.574842, 9.153765, -2.7973828, -0.24668702, 0.15788211, 0.07882957, 0.12037488, 0.06498113
1565632626138, 9.559155, 9.11784, -2.8572583, -0.2802173, 0.16426502, 0.10226539, 0.10546118, 0.07350325
1565632626139, 9.307701, 8.899893, -2.699187, -0.37362307, 0.17075163, 0.11504856, 0.0958738, 0.082025364
1565632626148, 9.261696, 8.837623, -2.6704469, -0.7376661, 0.17005238, 0.111852765, 0.09267801, 0.08841695
1565632626150, 9.241473, 8.799302, -2.6704469, -0.9196875, 0.17100398, 0.10439592, 0.08628642, 0.10439592
1565632626159, 9.203682, 8.789722, -2.6033864, -0.81909674, 0.1774265, 0.1107875, 0.08735169, 0.10759171
1565632626161, 9.333964, 8.892708, -2.6560767, -0.99393314, 0.16222827, 0.10652645, 0.070307456, 0.10013486
1565632626168, 9.456644, 9.050779, -2.5219557, -1.0729688, 0.14063913, 0.09054748, 0.0628506, 0.08735169
1565632626169, 9.512176, 9.08431, -2.565066, -1.1735597, 0.09733626, 0.066046394, 0.029827405, 0.06498113
1565632626180, 9.660933, 9.192085, -2.6896071, -1.2669654, 0.073170565, 0.05006743, 0.0031957934, 0.053263225
1565632626182, 9.686352, 9.208851, -2.7087672, -1.2981006, 0.046531454, 0.029827405, -0.010652645, 0.034088463
1565632626186, 9.63219, 9.110655, -2.799778, -1.3915064, 0.04564506, 0.014913702, -0.014913702, 0.040480047
1565632626189, 9.486239, 8.983719, -2.7782228, -1.2502003, 0.04377965, 0.002130529, -0.024501082, 0.036218993
1565632626199, 9.260458, 8.727451, -2.8836036, -1.1280543, 0.04888624, -0.008522116, -0.020240024, 0.043675844
1565632626200, 9.214916, 8.638836, -3.027305, -1.0585986, 0.07726657, -0.010652645, -0.02130529, 0.07350325
1565632626209, 9.331646, 8.722662, -3.1925611, -0.89573735, 0.08739714, -0.013848438, 0.0010652645, 0.08628642
1565632626210, 9.432052, 8.768167, -3.3386574, -0.96758795, 0.09728962, -0.014913702, 0.025566347, 0.09267801
1565632626220, 9.642031, 8.923843, -3.5757644, -0.74006104, 0.11060811, -0.0031957934, 0.046871636, 0.10013486
1565632626221, 9.87062, 9.153765, -3.6548, -0.5292993, 0.12547079, 0.01917476, 0.07456851, 0.099069595
1565632626229, 10.089586, 9.364527, -3.7314405, -0.4263135, 0.15790008, 0.054328486, 0.113983296, 0.094808534
1565632626231, 10.2358465, 9.4507475, -3.923042, -0.2562671, 0.17298333, 0.08735169, 0.12996227, 0.07350325
1565632626239, 10.25501, 9.462723, -3.9517825, -0.07424561, 0.20143642, 0.13635385, 0.12996227, 0.07137272
1565632626241, 10.160113, 9.3381815, -4.0020776, 0.098195806, 0.23504959, 0.18109496, 0.12250541, 0.08628642
1565632626249, 9.989103, 9.14658, -4.014053, 0.098195806, 0.28606862, 0.24394555, 0.111852765, 0.099069595
1565632626251, 9.952141, 9.11784, -3.9877076, 0.09101075, 0.32861465, 0.29507825, 0.10226539, 0.10226539
1565632626257, 9.935445, 9.108259, -3.9685476, 0.05748047, 0.37564737, 0.34408042, 0.094808534, 0.11717909
1565632626258, 9.989228, 9.14658, -4.014053, -0.1101709, 0.41335556, 0.3834952, 0.083090626, 0.12996227
1565632626268, 9.913259, 9.105865, -3.896697, -0.4143384, 0.44550094, 0.41225734, 0.083090626, 0.1470065
1565632626269, 9.905135, 9.081915, -3.9014869, -0.6394702, 0.4599192, 0.4282363, 0.07882957, 0.14807177
1565632626276, 9.898826, 9.108259, -3.7697608, -0.9029224, 0.4719795, 0.43675843, 0.07137272, 0.16405073
1565632626277, 9.901924, 9.096285, -3.7601807, -1.0801538, 0.4829421, 0.43888897, 0.058589544, 0.19281286
1565632626286, 9.919422, 9.093889, -3.7625759, -1.2406201, 0.4786026, 0.43036684, 0.05752428, 0.20133498
1565632626287, 9.835962, 8.998089, -3.68354, -1.4873072, 0.46246466, 0.41225734, 0.027696876, 0.20772657
1565632626299, 9.819328, 8.978929, -3.6907253, -1.4753321, 0.44277856, 0.38136467, -0.00958738, 0.2247708
1565632626300, 10.03842, 9.196876, -3.6452198, -1.7028589, 0.42367133, 0.35153726, -0.0628506, 0.22796659
1565632626308, 10.045749, 9.19927, -3.5877395, -1.8489552, 0.40021348, 0.3110572, -0.094808534, 0.23329292
1565632626310, 9.99554, 9.158555, -3.5613942, -1.829795, 0.37357384, 0.26525086, -0.12357068, 0.23222765
1565632626319, 9.933846, 9.172925, -3.3386574, -1.84177, 0.35195827, 0.22264028, -0.14274544, 0.23222765
1565632626320, 9.9067135, 9.168135, -3.3338673, -1.7244141, 0.32583514, 0.1768339, -0.13954964, 0.23542345
1565632626329, 9.815048, 9.115445, -3.187771, -1.7555494, 0.31440285, 0.13635385, -0.13848437, 0.24714136
1565632626330, 9.754003, 9.050779, -3.2668068, -1.5974782, 0.30979422, 0.10013486, -0.10759171, 0.2727077
1565632626339, 9.986209, 9.251961, -3.4608033, -1.465752, 0.3134232, 0.060720075, -0.07882957, 0.2972088
1565632626340, 10.080437, 9.347761, -3.5134938, -1.3747413, 0.30949554, 0.026631612, -0.03089267, 0.30679616
1565632626349, 10.304778, 9.565708, -3.657195, -1.1448194, 0.33072817, 0.00958738, 0.040480047, 0.32810146
1565632626350, 10.376832, 9.613608, -3.8296363, -0.76880133, 0.33579662, 0.023435818, 0.096939065, 0.3206446
1565632626356, 10.440142, 9.73815, -3.755391, -0.24908204, 0.35857978, 0.033023197, 0.14807177, 0.32490566
1565632626358, 10.566839, 9.843531, -3.8320315, 0.2802173, 0.34821767, 0.08735169, 0.17044231, 0.2908172
1565632626367, 10.710501, 9.903406, -3.999683, 0.79993653, 0.35601833, 0.1555286, 0.18855181, 0.25885928
1565632626368, 10.728898, 9.884246, -4.038003, 1.0514137, 0.3760323, 0.25246766, 0.16618125, 0.22370553
1565632626377, 10.66298, 9.766891, -4.028423, 1.4418018, 0.42034236, 0.34834146, 0.14487597, 0.18535602
1565632626378, 10.373886, 9.448353, -4.006868, 1.5136524, 0.4943355, 0.45486793, 0.10439592, 0.16298546
1565632626387, 10.121149, 9.182506, -4.023633, 1.3891114, 0.5709241, 0.5475459, 0.06498113, 0.14807177
1565632626393, 9.684264, 8.758587, -3.9493873, 1.214275, 0.6536784, 0.63702816, 0.013848438, 0.14594123
1565632626398, 9.271854, 8.384964, -3.8583767, 0.87897223, 0.7257711, 0.70840085, -0.007456851, 0.15765914
1565632626399, 8.959349, 8.128696, -3.7529957, 0.3305127, 0.78162396, 0.7637946, -0.017044231, 0.165116
1565632626410, 8.66473, 7.8580594, -3.6500099, -0.07664063, 0.82228273, 0.79894835, -0.025566347, 0.19281286
1565632626411, 8.500409, 7.702383, -3.539839, -0.6322852, 0.830836, 0.79894835, -0.049002163, 0.22264028
1565632626418, 8.346219, 7.575447, -3.3769777, -0.9316626, 0.8273388, 0.78936094, -0.0628506, 0.2396845
1565632626419, 8.334335, 7.556287, -3.2572267, -1.3244458, 0.81160706, 0.7616641, -0.10226539, 0.2609898
1565632626429, 8.459142, 7.6017923, -3.166216, -1.9351759, 0.76795083, 0.69774824, -0.15233281, 0.28229508
1565632626430, 8.667028, 7.7526784, -3.151846, -2.2537134, 0.71909297, 0.62744075, -0.19707392, 0.2908172
1565632626437, 8.834247, 7.90117, -3.1302907, -2.411785, 0.6671703, 0.5390238, -0.24181503, 0.30999196
1565632626438, 8.967491, 7.9802055, -3.1997461, -2.548301, 0.63742167, 0.46978164, -0.28655612, 0.32170987
1565632626447, 9.173274, 8.231683, -3.2620168, -2.3974147, 0.60868376, 0.4111921, -0.30040458, 0.3334278
1565632626448, 9.263436, 8.370594, -3.2739918, -2.2417383, 0.5564781, 0.350472, -0.28868666, 0.32170987
1565632626460, 9.490798, 8.626861, -3.290757, -2.196233, 0.5324873, 0.3174488, -0.2790993, 0.32384038
1565632626461, 9.611354, 8.794512, -3.3147073, -2.0118165, 0.50176895, 0.27377295, -0.2695119, 0.32277513
1565632626468, 9.77974, 8.935819, -3.4631984, -1.949546, 0.46560833, 0.23329292, -0.25353295, 0.31318775
1565632626469, 9.696658, 8.861572, -3.4703834, -1.8585353, 0.43444246, 0.20133498, -0.2130529, 0.3206446
1565632626479, 9.716727, 8.847202, -3.6021094, -1.7794995, 0.40957582, 0.16724652, -0.19920446, 0.31638354
1565632626480, 9.607989, 8.746612, -3.6380348, -1.6046631, 0.3862623, 0.12996227, -0.18855181, 0.3110572
1565632626491, 9.524795, 8.722662, -3.5637891, -1.3915064, 0.38108784, 0.11930962, -0.17576863, 0.31638354
1565632626492, 9.385864, 8.605306, -3.6164796, -0.98195803, 0.37596592, 0.11611383, -0.17257284, 0.31318775
1565632626501, 9.30987, 8.53585, -3.661985, -0.6346802, 0.3850323, 0.13954964, -0.18961707, 0.30466563
1565632626502, 9.190725, 8.428074, -3.652405, -0.31135255, 0.4126989, 0.16085494, -0.21837921, 0.3110572
1565632626511, 8.997773, 8.186177, -3.7314405, -0.15088624, 0.44150552, 0.19281286, -0.25353295, 0.3057309
1565632626512, 8.977061, 8.138277, -3.788921, 0.011975098, 0.5240506, 0.23222765, -0.31638354, 0.3472762
1565632626519, 8.763455, 7.89638, -3.7985013, 0.12933107, 0.58738106, 0.2727077, -0.3834952, 0.35153726
1565632626520, 8.679312, 7.776629, -3.8464015, 0.244292, 0.66434765, 0.32277513, -0.45806372, 0.3568636
1565632626529, 8.640813, 7.7430983, -3.8224514, 0.31135255, 0.77295196, 0.3749731, -0.55287224, 0.3888215
1565632626530, 8.435358, 7.5251517, -3.772156, 0.5460645, 0.91510004, 0.44528055, -0.6849651, 0.41225734
1565632626538, 8.294469, 7.3096, -3.8799317, 0.5604346, 1.0842085, 0.51452273, -0.84688526, 0.43995422
1565632626545, 8.122768, 7.158714, -3.8128712, 0.4406836, 1.2523574, 0.55287224, -1.0237192, 0.46339005
1565632626550, 8.123793, 7.070098, -3.9972878, 0.17723145, 1.4183152, 0.59228706, -1.1888351, 0.49747851
1565632626551, 8.100614, 7.0269876, -4.023633, -0.22752686, 1.574983, 0.60720074, -1.3550164, 0.5251754
1565632626562, 8.052789, 6.9216065, -4.071533, -0.6011499, 1.7154919, 0.6199839, -1.4945661, 0.5699165
1565632626563, 8.157161, 6.9958525, -4.040398, -1.1280543, 1.804463, 0.5954828, -1.5947009, 0.59867865
1565632626569, 8.632152, 7.434141, -4.0906935, -1.585503, 1.8700762, 0.5763081, -1.6671388, 0.62104917
1565632626571, 8.923563, 7.7287283, -4.021238, -1.9303858, 1.8798208, 0.52624065, -1.6852484, 0.64555025
1565632626579, 9.319964, 8.061636, -4.112249, -2.2273684, 1.8487378, 0.4889564, -1.6564863, 0.6593987
1565632626580, 9.852023, 8.566985, -4.145779, -2.5459058, 1.7748886, 0.43995422, -1.5808525, 0.6764429
1565632626594, 10.174191, 8.933423, -4.0667434, -2.6776319, 1.6638944, 0.3834952, -1.4753913, 0.6668556
1565632626595, 10.585294, 9.326206, -4.0044727, -3.0057497, 1.5498587, 0.3270362, -1.3528858, 0.68176925
1565632626600, 10.838985, 9.5489435, -4.071533, -3.1183155, 1.4085218, 0.25566345, -1.212271, 0.67005134
1565632626601, 11.284973, 9.989627, -4.174519, -3.182981, 1.2745411, 0.19813919, -1.0705907, 0.6625945
1565632626612, 11.599196, 10.34888, -4.2128396, -3.1135256, 1.1503816, 0.14168017, -0.9502159, 0.6327671
1565632626613, 11.7944975, 10.574012, -4.2224197, -3.0776002, 1.0461179, 0.080960095, -0.8628642, 0.5858955
1565632626621, 11.87084, 10.765614, -4.1170387, -2.8404932, 0.96965283, 0.03195793, -0.80107886, 0.5454154
1565632626622, 11.993624, 10.909314, -4.0523734, -2.9003687, 0.89405835, -0.0063915867, -0.7435546, 0.49641323
1565632626631, 11.972672, 10.885365, -4.1314087, -2.7901978, 0.8384288, -0.041545313, -0.7105314, 0.44315
1565632626632, 11.960398, 10.890154, -4.2104445, -2.5938063, 0.8025939, -0.07456851, -0.6945524, 0.39521313
1565632626642, 11.732868, 10.734478, -4.102669, -2.3662794, 0.8088514, -0.096939065, -0.7275756, 0.33981937
1565632626644, 11.403031, 10.43031, -4.064348, -2.1722827, 0.82928836, -0.10546118, -0.76059884, 0.31318775
1565632626652, 11.117034, 10.130933, -4.1936793, -1.8345851, 0.8738013, -0.099069595, -0.8202536, 0.28442562
1565632626654, 10.903698, 9.8938265, -4.2918754, -1.6070582, 0.9514965, -0.080960095, -0.9108011, 0.26312032
1565632626663, 10.509499, 9.505833, -4.311035, -1.22625, 1.0588739, -0.041545313, -1.0290455, 0.24607609
1565632626664, 10.3320675, 9.335787, -4.3206153, -0.9627979, 1.1771847, 0.0031957934, -1.1504856, 0.24927188
1565632626673, 10.02758, 9.036409, -4.28469, -0.732876, 1.3236574, 0.051132694, -1.2985574, 0.2514024
1565632626674, 9.82277, 8.782537, -4.3493557, -0.6610254, 1.4738672, 0.12357068, -1.4466292, 0.25353295
1565632626682, 9.560458, 8.533455, -4.26553, -0.6227051, 1.6156164, 0.18429075, -1.5819178, 0.27164245
1565632626685, 9.485551, 8.442444, -4.2511597, -0.7927515, 1.7505819, 0.23435818, -1.7108147, 0.2876214
1565632626690, 9.444105, 8.384964, -4.1793094, -1.1903248, 1.8409613, 0.27164245, -1.7960359, 0.29933932
1565632626691, 9.314541, 8.171807, -4.0499783, -1.8920655, 1.9149737, 0.27483824, -1.8663434, 0.3291667
1565632626700, 9.5173855, 8.277188, -4.014053, -2.440525, 1.9406389, 0.26631612, -1.8908445, 0.34621096
1565632626701, 10.00837, 8.57417, -3.9637575, -3.307522, 1.9318112, 0.21731395, -1.8844528, 0.3653857
1565632626710, 10.257628, 8.638836, -3.9972878, -3.8224514, 1.8864559, 0.1555286, -1.8429075, 0.3717773
1565632626711, 10.618093, 8.804092, -3.8535867, -4.514612, 1.8169546, 0.082025364, -1.7736653, 0.38562572
1565632626720, 10.727097, 8.801697, -3.6380348, -4.9361353, 1.7357548, 0.002130529, -1.6873789, 0.406931
1565632626727, 10.892963, 8.859178, -3.5757644, -5.233118, 1.6576481, -0.10226539, -1.598962, 0.4250405
1565632626731, 11.137231, 9.060359, -3.4751735, -5.465435, 1.6057879, -0.21837921, -1.5318503, 0.4293016
1565632626732, 11.339549, 9.2184305, -3.4847536, -5.609136, 1.5813434, -0.3153183, -1.4892397, 0.4282363
1565632626741, 11.669266, 9.551338, -3.5015187, -5.716912, 1.5928586, -0.43356264, -1.478587, 0.40373522
1565632626742, 11.92324, 9.783655, -3.6308498, -5.767207, 1.6380826, -0.531567, -1.5052186, 0.36751625
1565632626751, 12.00637, 9.941727, -3.7146754, -5.613926, 1.6918774, -0.6263755, -1.5361114, 0.3323625
1565632626752, 11.974963, 9.951306, -3.9613624, -5.3552637, 1.7538997, -0.69668293, -1.5819178, 0.2972088
1565632626765, 12.0466, 10.186019, -4.0116577, -5.0271463, 1.8043611, -0.74675035, -1.6245283, 0.2428803
1565632626766, 11.909947, 10.147698, -4.1864944, -4.6199927, 1.7989599, -0.7637946, -1.6160061, 0.2034655
1565632626775, 11.800061, 10.140513, -4.239185, -4.29427, 1.731836, -0.7755125, -1.5382419, 0.17789917
1565632626776, 11.657205, 10.037527, -4.3014555, -4.0787187, 1.605284, -0.75420725, -1.4082797, 0.15765914
1565632626785, 11.627366, 10.011182, -4.3493557, -4.006868, 1.4322302, -0.72970617, -1.2218584, 0.16085494
1565632626786, 11.711426, 10.099798, -4.3278003, -4.0523734, 1.2688073, -0.73609775, -1.0205233, 0.16298546
1565632626797, 11.891671, 10.214759, -4.414021, -4.1936793, 1.0983874, -0.73822826, -0.7978831, 0.15765914
1565632626798, 12.0978565, 10.370435, -4.5696974, -4.2343946, 0.9851352, -0.7637946, -0.6018744, 0.15765914
1565632626806, 12.115937, 10.480606, -4.528982, -4.054768, 0.89480245, -0.7755125, -0.4250405, 0.13635385
1565632626808, 12.016396, 10.41115, -4.5768824, -3.8799317, 0.8407886, -0.7850999, -0.27483824, 0.12250541
1565632626812, 11.861757, 10.37283, -4.5601172, -3.5087037, 0.8032087, -0.78083885, -0.1587244, 0.101200126
1565632626814, 11.7539625, 10.38241, -4.514612, -3.159031, 0.770377, -0.76059884, -0.10013486, 0.070307456
1565632626825, 11.47527, 10.236314, -4.495452, -2.5866213, 0.7300754, -0.72437984, -0.07669904, 0.049002163
1565632626827, 11.375401, 10.154883, -4.5840673, -2.2944288, 0.66631246, -0.6583334, -0.101200126, 0.018109497
1565632626834, 11.247389, 10.130933, -4.485872, -1.9351759, 0.60613924, -0.5858955, -0.15339808, -0.024501082
1565632626836, 11.030679, 9.975257, -4.375701, -1.7387843, 0.57075715, -0.50600064, -0.25672874, -0.06178534
1565632626847, 10.962291, 9.958491, -4.368516, -1.3843213, 0.5734221, -0.40373522, -0.39414784, -0.10226539
1565632626849, 10.83892, 9.929751, -4.2008643, -1.1112891, 0.6573381, -0.30679616, -0.5592638, -0.1587244
1565632626852, 10.84287, 9.934542, -4.184099, -1.1687696, 0.8029904, -0.21092236, -0.74461985, -0.21411815
1565632626855, 10.873833, 10.0063925, -4.0499783, -1.3076807, 0.99464786, -0.1257012, -0.9491506, -0.2695119
1565632626862, 10.77091, 9.877061, -4.045188, -1.4465919, 1.2087189, -0.041545313, -1.1547467, -0.35473305
1565632626865, 10.688292, 9.807606, -3.923042, -1.6310084, 1.3749609, 0.039414786, -1.3166668, -0.39414784
1565632626873, 10.592513, 9.683064, -3.7386258, -2.1124072, 1.4771566, 0.098004326, -1.4093449, -0.4314321
1565632626876, 10.617482, 9.572893, -3.5877395, -2.8668385, 1.5088512, 0.11824436, -1.438107, -0.44101948
1565632626882, 10.684466, 9.453142, -3.4679885, -3.5733693, 1.4933952, 0.11611383, -1.4210628, -0.44421527
1565632626885, 10.694279, 9.208851, -3.3290772, -4.2990603, 1.4021062, 0.07137272, -1.3369069, -0.4165184
1565632626894, 10.843882, 9.022039, -3.2380664, -5.0702567, 1.2497513, -0.002130529, -1.1941614, -0.3685815
1565632626898, 10.958461, 8.880733, -3.1494508, -5.5947657, 1.0705701, -0.101200126, -1.0183928, -0.314253
1565632626903, 11.351306, 8.959768, -3.1111305, -6.236631, 0.88359755, -0.21092236, -0.81705785, -0.26205507
1565632626905, 11.617073, 9.134604, -3.0943654, -6.476133, 0.7227574, -0.3291667, -0.608266, -0.20985709
1565632626913, 11.682186, 9.18011, -3.0991554, -6.5264287, 0.6150931, -0.43782368, -0.40053943, -0.16192019
1565632626915, 11.685875, 9.275911, -3.0776002, -6.4066777, 0.6056682, -0.55287224, -0.20772657, -0.13422333
1565632626923, 11.781029, 9.568104, -3.1949563, -6.085745, 0.6566074, -0.64555025, -0.034088463, -0.11504856
1565632626925, 11.773822, 9.735755, -3.1614258, -5.8175025, 0.72351307, -0.7105314, 0.09267801, -0.10013486
1565632626935, 11.6498375, 9.850716, -3.182981, -5.343289, 0.7892869, -0.7595336, 0.18322548, -0.111852765
1565632626937, 11.624389, 10.023157, -3.3482375, -4.8427296, 0.80390275, -0.76272935, 0.2247708, -0.11824436
1565632626947, 11.537492, 10.183623, -3.4057178, -4.2200246, 0.81654793, -0.7701862, 0.21837921, -0.16085494
1565632626950, 11.571404, 10.427916, -3.3673975, -3.7170706, 0.7960327, -0.74248934, 0.20026971, -0.20559604
1565632626954, 11.444342, 10.432706, -3.4464333, -3.2021413, 0.75937515, -0.6945524, 0.1470065, -0.2695119
1565632626956, 11.382079, 10.494976, -3.391348, -2.811753, 0.70980275, -0.62744075, 0.08948222, -0.31957933
1565632626967, 11.161443, 10.284214, -3.3817677, -2.7159522, 0.66164935, -0.5550028, 0.040480047, -0.35792887
1565632626969, 11.111166, 10.279425, -3.2452517, -2.694397, 0.6426476, -0.49321744, -0.025566347, -0.4111921
1565632626975, 11.08994, 10.214759, -3.2668068, -2.823728, 0.65096986, -0.44741106, -0.10865697, -0.46019423
1565632626977, 11.228153, 10.265054, -3.3985329, -3.0249097, 0.682586, -0.4250405, -0.19707392, -0.49641323
1565632626987, 11.269082, 10.188414, -3.5110989, -3.295547, 0.7430447, -0.40906155, -0.28336033, -0.551807
1565632626989, 11.3225, 10.190808, -3.5566041, -3.420088, 0.7927021, -0.39095205, -0.3653857, -0.58483016
1565632626995, 11.170784, 10.063872, -3.5063088, -3.3482375, 0.8386102, -0.37603834, -0.43356264, -0.6114618
1565632626998, 10.918906, 9.841136, -3.3697927, -3.319497, 0.8615705, -0.34621096, -0.45806372, -0.6423545
1565632627006, 10.881581, 9.802815, -3.3865578, -3.293152, 0.835934, -0.31957933, -0.43995422, -0.6348976
1565632627009, 10.757456, 9.572893, -3.3482375, -3.5877395, 0.80599135, -0.31318775, -0.37816888, -0.63915867
1565632627015, 10.799704, 9.517808, -3.2380664, -3.9445972, 0.7523777, -0.30999196, -0.30360037, -0.6146576
1565632627017, 10.901685, 9.489068, -3.288362, -4.24158, 0.72166854, -0.3323625, -0.18748654, -0.6125271
1565632627024, 10.776532, 9.316627, -3.2500417, -4.3325906, 0.68775344, -0.35260254, -0.07350325, -0.5858955
1565632627026, 10.619284, 9.19927, -3.06802, -4.3278003, 0.666091, -0.36964676, 0.013848438, -0.5539375
1565632627034, 10.388168, 9.010064, -3.1087356, -4.1314087, 0.6651457, -0.386691, 0.0958738, -0.53263223
1565632627036, 10.217681, 8.892708, -3.0344899, -4.014053, 0.66078687, -0.40906155, 0.15126756, -0.49641323
1565632627045, 10.03179, 8.801697, -2.9865894, -3.774551, 0.65299666, -0.40906155, 0.18535602, -0.47404268
1565632627046, 10.037583, 8.849598, -3.1039455, -3.5781593, 0.63804096, -0.4079963, 0.19387813, -0.45060685
1565632627055, 9.908254, 8.811277, -3.1255007, -3.2811768, 0.6192, -0.39414784, 0.17257284, -0.44528055
1565632627056, 9.934341, 8.988508, -3.0153298, -2.9674294, 0.5862962, -0.35473305, 0.13315806, -0.44741106
1565632627065, 9.887702, 9.0148535, -3.1159205, -2.6057813, 0.559001, -0.31851408, 0.07137272, -0.45380265
1565632627066, 9.862072, 9.045989, -3.0608351, -2.4620802, 0.5443689, -0.28442562, 0.026631612, -0.46339005
1565632627078, 9.848858, 9.045989, -3.0752053, -2.3902297, 0.539148, -0.2396845, -0.037284255, -0.48149952
1565632627079, 9.791672, 9.022039, -2.9530592, -2.3998096, 0.5203781, -0.18961707, -0.084155895, -0.47723848
1565632627088, 9.885454, 9.05557, -3.03928, -2.5459058, 0.5405459, -0.15126756, -0.15126756, -0.49641323
1565632627089, 9.944047, 9.081915, -3.1302907, -2.5698562, 0.5579902, -0.12676647, -0.2034655, -0.50387007
1565632627098, 10.066103, 9.105865, -3.1901662, -2.8692336, 0.5860213, -0.099069595, -0.24501082, -0.5230448
1565632627099, 10.140364, 9.093889, -3.2069314, -3.1374757, 0.60894936, -0.099069595, -0.29188246, -0.5251754
1565632627108, 10.250483, 9.182506, -3.2356715, -3.2069314, 0.6401424, -0.112918034, -0.32277513, -0.5411543
1565632627109, 10.269296, 9.091495, -3.300337, -3.4512234, 0.6600764, -0.10652645, -0.34621096, -0.551807
1565632627118, 10.332011, 9.168135, -3.182981, -3.544629, 0.6709391, -0.10759171, -0.34088463, -0.567786
1565632627119, 10.395487, 9.22801, -3.2452517, -3.5182838, 0.6782966, -0.112918034, -0.3206446, -0.58696073
1565632627128, 10.482994, 9.249566, -3.2189064, -3.7386258, 0.67014873, -0.10013486, -0.27483824, -0.60293967
1565632627129, 10.534691, 9.244776, -3.2739918, -3.8464015, 0.65694004, -0.101200126, -0.22370553, -0.60933125
1565632627138, 10.511608, 9.17053, -3.2452517, -3.9829175, 0.6597841, -0.11717909, -0.16298546, -0.628506
1565632627139, 10.68807, 9.266331, -3.3410523, -4.148174, 0.65707046, -0.14274544, -0.07456851, -0.63702816
1565632627148, 10.815264, 9.295072, -3.307522, -4.430786, 0.6674858, -0.17576863, 0.025566347, -0.64341974
1565632627151, 10.793929, 9.14658, -3.3721876, -4.634363, 0.69848377, -0.20559604, 0.12250541, -0.6562029
1565632627156, 10.698186, 8.981323, -3.3410523, -4.756509, 0.7300808, -0.24181503, 0.23755397, -0.6466155
1565632627159, 10.612527, 8.854387, -3.439248, -4.7325587, 0.7808977, -0.28122982, 0.3355583, -0.6466155
1565632627169, 10.545843, 8.744217, -3.5087037, -4.737349, 0.82255733, -0.30786142, 0.4079963, -0.644485
1565632627171, 10.444991, 8.586145, -3.652405, -4.6942387, 0.8649797, -0.3472762, 0.46658584, -0.6402239
1565632627178, 10.271431, 8.420889, -3.6212697, -4.634363, 0.8946522, -0.3749731, 0.49854377, -0.6412892
1565632627180, 10.248953, 8.425679, -3.6763551, -4.5313773, 0.8941237, -0.4016047, 0.51026165, -0.6146576
1565632627188, 9.991701, 8.2197075, -3.642825, -4.358936, 0.9106329, -0.4101268, 0.50387007, -0.6380934
1565632627190, 9.962143, 8.229287, -3.8200562, -4.1146436, 0.90346044, -0.41758367, 0.49002165, -0.63383234
1565632627196, 9.856244, 8.133487, -3.8895118, -3.9829175, 0.8881112, -0.40906155, 0.47297743, -0.6306366
1565632627198, 9.657544, 7.9921803, -3.9422023, -3.7218604, 0.86212546, -0.3920173, 0.46019423, -0.6146576
1565632627207, 9.409158, 7.7359133, -3.9877076, -3.5757644, 0.83042884, -0.3685815, 0.42717105, -0.60933125
1565632627212, 9.170638, 7.5299416, -3.8583767, -3.537444, 0.80199766, -0.35260254, 0.40373522, -0.5965481
1565632627217, 9.120239, 7.472461, -3.8703518, -3.515889, 0.75676906, -0.3121225, 0.3717773, -0.58056915
1565632627219, 8.962694, 7.3383403, -3.8080812, -3.4608033, 0.7152789, -0.2908172, 0.33449304, -0.5613944
1565632627229, 8.85985, 7.189849, -3.791316, -3.5254688, 0.68256855, -0.26205507, 0.3121225, -0.5475459
1565632627231, 8.850814, 7.1778736, -3.781736, -3.537444, 0.6300515, -0.24181503, 0.28336033, -0.50813115
1565632627238, 8.635183, 7.053333, -3.666775, -3.3721876, 0.5916257, -0.20559604, 0.26205507, -0.4889564
1565632627240, 8.622352, 6.9862723, -3.661985, -3.4823585, 0.55034184, -0.16405073, 0.2514024, -0.4612595
1565632627250, 8.563248, 6.9886675, -3.5015187, -3.4967287, 0.52438504, -0.1257012, 0.25246766, -0.44208476
1565632627252, 8.71241, 7.082073, -3.4775686, -3.6955154, 0.50796366, -0.08841695, 0.25672874, -0.4293016
1565632627258, 8.8153105, 7.0437527, -3.408113, -4.0595584, 0.48037875, -0.082025364, 0.26525086, -0.3920173
1565632627260, 8.853494, 6.969507, -3.396138, -4.2751102, 0.46897292, -0.080960095, 0.2727077, -0.37284255
1565632627268, 9.103457, 7.0509377, -3.3650026, -4.6726832, 0.45141703, -0.080960095, 0.28336033, -0.34194988
1565632627270, 9.199146, 7.110813, -3.3985329, -4.744534, 0.4477673, -0.096939065, 0.29827404, -0.31957933
1565632627280, 9.232303, 7.101233, -3.3386574, -4.864285, 0.44013086, -0.09374327, 0.3206446, -0.28655612
1565632627282, 9.44201, 7.340735, -3.2213013, -4.988826, 0.4268216, -0.098004326, 0.32490566, -0.25885928
1565632627288, 9.782134, 7.647298, -3.1973512, -5.1947975, 0.45764858, -0.111852765, 0.3685815, -0.24714136
1565632627290, 10.126597, 7.89638, -3.0704153, -5.5468655, 0.47315252, -0.1438107, 0.38242993, -0.23861924
1565632627300, 10.536112, 8.159832, -3.1302907, -5.8845634, 0.5119225, -0.1736381, 0.4133226, -0.24714136
1565632627302, 10.960728, 8.464, -3.2165112, -6.1767554, 0.56991744, -0.23861924, 0.45060685, -0.2545982
1565632627309, 11.167456, 8.5502205, -3.1039455, -6.478528, 0.6180719, -0.29188246, 0.46978164, -0.2759035
1565632627311, 11.247262, 8.58854, -3.2093263, -6.5144534, 0.66965157, -0.34621096, 0.5006743, -0.2790993
1565632627321, 11.280175, 8.5598, -3.288362, -6.569539, 0.72374195, -0.38775626, 0.531567, -0.30146983
1565632627323, 10.9894085, 8.399334, -3.1231055, -6.361172, 0.7858598, -0.43036684, 0.58269966, -0.30466563
1565632627329, 10.851372, 8.315508, -3.1255007, -6.231841, 0.8178651, -0.45806372, 0.6114618, -0.29188246
1565632627331, 10.533784, 8.035291, -3.1063404, -6.0617948, 0.839544, -0.46978164, 0.6359629, -0.28229508
1565632627341, 10.170271, 7.810159, -3.0153298, -5.774392, 0.8604944, -0.46871635, 0.6711166, -0.26525086
1565632627343, 9.86723, 7.5395217, -2.9458742, -5.6426663, 0.8739727, -0.4825648, 0.6892261, -0.23648871
1565632627348, 9.479819, 7.220984, -2.9338992, -5.3959794, 0.8672803, -0.46658584, 0.700944, -0.20772657
1565632627350, 9.302812, 7.1395535, -2.7758276, -5.278623, 0.85578734, -0.4612595, 0.69987875, -0.17257284
1565632627358, 9.01734, 6.9886675, -2.692002, -5.022356, 0.81724465, -0.43569317, 0.67537767, -0.14807177
1565632627360, 8.819403, 6.926397, -2.548301, -4.8283596, 0.7772628, -0.41225734, 0.6466155, -0.12676647
1565632627368, 8.715941, 6.825806, -2.567461, -4.773274, 0.7181502, -0.37816888, 0.60293967, -0.0958738
1565632627370, 8.860921, 6.9000516, -2.5387208, -4.9457154, 0.6565668, -0.34940675, 0.551807, -0.06711166
1565632627378, 8.727024, 6.8856816, -2.4884255, -4.749324, 0.57746863, -0.31318775, 0.48469532, -0.02130529
1565632627380, 8.708813, 6.9862723, -2.3902297, -4.617598, 0.5138397, -0.26525086, 0.43995422, -0.010652645
1565632627388, 8.7916355, 7.1539235, -2.2632935, -4.5816727, 0.44758353, -0.21944448, 0.3898868, 0.0127831735
1565632627391, 8.919971, 7.2808595, -2.2680836, -4.6271777, 0.3925742, -0.18961707, 0.34301516, 0.022370555
1565632627400, 9.252381, 7.5203614, -2.3064039, -4.87147, 0.35264274, -0.16937704, 0.30786142, 0.029827405
1565632627402, 9.362831, 7.661668, -2.2561085, -4.88584, 0.2939049, -0.14913702, 0.24927188, 0.04474111
1565632627413, 9.63464, 7.8700347, -2.3495142, -5.0367265, 0.25594074, -0.14913702, 0.20240025, 0.0479369
1565632627414, 9.804235, 8.073611, -2.1267774, -5.1397123, 0.2285259, -0.1555286, 0.16298546, 0.03834952
1565632627422, 10.096874, 8.303533, -2.1028273, -5.345684, 0.20983815, -0.1587244, 0.13209279, 0.037284255
1565632627424, 10.328996, 8.51669, -2.088457, -5.4582496, 0.21754621, -0.18109496, 0.11824436, 0.023435818
1565632627433, 10.43175, 8.552615, -2.1291726, -5.5803957, 0.23239861, -0.19707392, 0.12250541, 0.0127831735
1565632627434, 10.645916, 8.890313, -2.1531227, -5.4462748, 0.26374924, -0.221575, 0.14274544, -0.00958738
1565632627442, 10.785908, 9.06994, -2.1124072, -5.4414845, 0.28283322, -0.22796659, 0.16618125, -0.020240024
1565632627444, 10.659449, 8.990904, -1.9950514, -5.367239, 0.32063222, -0.24714136, 0.2034655, -0.018109497
1565632627451, 10.649632, 9.024434, -1.9639161, -5.3025737, 0.34548417, -0.24394555, 0.2396845, -0.049002163
1565632627453, 10.561513, 9.074729, -1.8609302, -5.0726514, 0.38033524, -0.25992453, 0.2727077, -0.05219796
1565632627462, 10.50031, 9.045989, -1.7962648, -5.0199614, 0.4034794, -0.2545982, 0.3057309, -0.06711166
1565632627464, 10.390191, 8.990904, -1.7292042, -4.912185, 0.43310696, -0.2545982, 0.3387541, -0.08948222
1565632627473, 10.33574, 8.974138, -1.5783179, -4.878655, 0.44389328, -0.25353295, 0.34940675, -0.10333065
1565632627474, 10.257729, 8.880733, -1.6549586, -4.8594947, 0.46650922, -0.27483824, 0.35792887, -0.11824436
1565632627482, 10.193806, 8.744217, -1.6597486, -4.9696655, 0.47185084, -0.2908172, 0.35153726, -0.12037488
1565632627484, 9.921374, 8.485555, -1.7387843, -4.8379397, 0.47831324, -0.29614353, 0.35579833, -0.12037488
1565632627492, 9.786344, 8.349038, -1.7339942, -4.8020144, 0.4649803, -0.29614353, 0.34194988, -0.10759171
1565632627494, 9.414382, 8.080796, -1.5926881, -4.5601172, 0.46334228, -0.29827404, 0.33981937, -0.101200126
1565632627500, 9.272389, 8.013736, -1.6286134, -4.3709106, 0.4313058, -0.28229508, 0.3174488, -0.07456851
1565632627502, 9.141047, 7.9083548, -1.463357, -4.3445654, 0.42772987, -0.28655612, 0.3089267, -0.07350325
1565632627510, 9.169494, 7.8820095, -1.5783179, -4.4116263, 0.42145854, -0.2908172, 0.29827404, -0.06391586
1565632627512, 9.25144, 7.8915896, -1.5232325, -4.5816727, 0.40766934, -0.29188246, 0.28016454, -0.05006743
1565632627520, 9.171956, 7.817344, -1.6022681, -4.521797, 0.4084202, -0.30146983, 0.2727077, -0.039414786
1565632627522, 9.334877, 7.8748245, -1.6453785, -4.734954, 0.42542616, -0.3355583, 0.25992453, -0.02876214
1565632627530, 9.342412, 7.8341093, -1.7411792, -4.782854, 0.4355069, -0.3568636, 0.24714136, -0.035153728
1565632627534, 9.279614, 7.783814, -1.7292042, -4.7469287, 0.44488916, -0.37284255, 0.24074976, -0.03089267
1565632627543, 9.237697, 7.726333, -1.8561403, -4.711004, 0.4729906, -0.41225734, 0.23116238, -0.018109497
1565632627545, 9.215463, 7.7646537, -1.83219, -4.6128078, 0.47436455, -0.42397526, 0.21198763, -0.018109497
1565632627552, 9.174423, 7.7407036, -1.9998415, -4.5002418, 0.4853142, -0.43995422, 0.20453078, -0.011717909
1565632627554, 9.26699, 7.846084, -2.078877, -4.471502, 0.4971853, -0.45380265, 0.20240025, -0.017044231
1565632627563, 9.425294, 7.94907, -2.1219873, -4.598438, 0.5166093, -0.47723848, 0.19707392, -0.017044231
1565632627565, 9.376131, 7.8436894, -2.2800586, -4.6032276, 0.5364418, -0.49321744, 0.21092236, -0.004261058
1565632627571, 9.425896, 7.8532696, -2.459685, -4.5960426, 0.5476299, -0.50173956, 0.21944448, 0.0
1565632627575, 9.2206955, 7.7622585, -2.4908204, -4.3086405, 0.56766003, -0.51452273, 0.2396845, 0.007456851
1565632627582, 9.087684, 7.647298, -2.5842261, -4.174519, 0.56367993, -0.50600064, 0.24820662, 0.00958738
1565632627585, 8.9999485, 7.692803, -2.565066, -3.903882, 0.5540737, -0.49534798, 0.24714136, 0.023435818
1565632627593, 8.8862505, 7.5874224, -2.703977, -3.7529957, 0.54724014, -0.49002165, 0.24074976, 0.037284255
1565632627596, 8.997267, 7.719148, -2.7015822, -3.7506008, 0.5196602, -0.45699844, 0.24181503, 0.05219796
1565632627603, 9.094592, 7.812554, -2.8596535, -3.6739602, 0.49041286, -0.43356264, 0.221575, 0.058589544
1565632627605, 9.047479, 7.805369, -2.8692336, -3.5637891, 0.4463852, -0.39414784, 0.19813919, 0.068176925
1565632627613, 9.04709, 7.8724294, -2.8452833, -3.432063, 0.41528922, -0.3685815, 0.18109496, 0.06178534
1565632627615, 9.031572, 7.8556643, -2.907554, -3.3769777, 0.37961397, -0.3355583, 0.16298546, 0.070307456
1565632627623, 8.978253, 7.838899, -2.8309133, -3.3386574, 0.32913396, -0.29188246, 0.13315806, 0.07350325
1565632627625, 8.858363, 7.7502837, -2.7973828, -3.2524366, 0.286146, -0.25992453, 0.099069595, 0.06711166
1565632627633, 8.896315, 7.7646537, -2.7734327, -3.3410523, 0.2424173, -0.22264028, 0.07243799, 0.0628506
1565632627635, 8.869855, 7.793394, -2.6896071, -3.271597, 0.19748808, -0.18535602, 0.02876214, 0.06178534
1565632627641, 8.905109, 7.7718387, -2.6776319, -3.4248781, 0.16639282, -0.15126756, -0.0031957934, 0.06924219
1565632627644, 8.993498, 7.788604, -2.5962012, -3.671565, 0.14812157, -0.13102753, -0.020240024, 0.066046394
1565632627651, 9.115113, 7.790999, -2.43813, -4.054768, 0.14663938, -0.11824436, -0.040480047, 0.07669904
1565632627655, 9.21695, 7.790999, -2.4022048, -4.2990603, 0.14062297, -0.10546118, -0.05965481, 0.07137272
1565632627661, 9.422579, 7.8724294, -2.2752686, -4.6511283, 0.15579835, -0.113983296, -0.07456851, 0.07563378
1565632627663, 9.501266, 7.798184, -2.2680836, -4.9313455, 0.17710643, -0.12676647, -0.083090626, 0.09161274
1565632627672, 9.543488, 7.8508744, -2.189048, -4.9648757, 0.1867497, -0.13848437, -0.099069595, 0.07669904
1565632627675, 9.674978, 7.8891945, -2.1339624, -5.1780324, 0.20250395, -0.15233281, -0.10439592, 0.083090626
1565632627682, 9.709025, 7.8365045, -2.1171973, -5.326524, 0.2413876, -0.18642128, -0.12676647, 0.08628642
1565632627689, 9.799218, 7.8700347, -2.059717, -5.46304, 0.24924001, -0.19920446, -0.12463594, 0.083090626
1565632627692, 9.9637575, 7.932305, -2.1627028, -5.6282964, 0.2678563, -0.22370553, -0.111852765, 0.0958738
1565632627693, 9.967749, 7.941885, -2.088457, -5.6498513, 0.285113, -0.24394555, -0.09374327, 0.113983296
1565632627702, 9.921805, 7.90117, -2.1459377, -5.604346, 0.29271716, -0.25992453, -0.08628642, 0.10333065
1565632627703, 9.962936, 7.965835, -2.1411476, -5.5875807, 0.30378532, -0.26631612, -0.07456851, 0.1257012
1565632627712, 9.809509, 7.893985, -1.9639161, -5.4822, 0.3108127, -0.2727077, -0.06711166, 0.13315806
1565632627713, 9.790217, 7.824529, -1.9160157, -5.5636306, 0.33527413, -0.28975195, -0.07243799, 0.15233281
1565632627726, 9.874526, 7.822134, -1.9567311, -5.7001467, 0.36497706, -0.30786142, -0.10226539, 0.16724652
1565632627728, 9.647779, 7.719148, -1.9375709, -5.4534597, 0.3978388, -0.32384038, -0.13209279, 0.18961707
1565632627733, 9.439729, 7.5970025, -1.7675245, -5.3169436, 0.40784466, -0.3110572, -0.1555286, 0.2130529
1565632627735, 9.30904, 7.541917, -1.707649, -5.1828227, 0.43539095, -0.30360037, -0.17896444, 0.25566345
1565632627746, 9.324633, 7.606582, -1.5088624, -5.1780324, 0.46604314, -0.2972088, -0.19813919, 0.29933932
1565632627747, 9.398633, 7.685618, -1.4849122, -5.2019825, 0.49540868, -0.30360037, -0.21518342, 0.3270362
1565632627755, 9.573292, 7.8341093, -1.4944923, -5.295388, 0.5272037, -0.30360037, -0.22690132, 0.36645097
1565632627757, 9.770641, 8.111932, -1.3962965, -5.264253, 0.5531154, -0.330232, -0.20985709, 0.39095205
1565632627766, 10.257725, 8.56459, -1.4226416, -5.46304, 0.56670964, -0.34194988, -0.18748654, 0.4111921
1565632627769, 10.604107, 8.899893, -1.3627661, -5.601951, 0.5729707, -0.36751625, -0.18109496, 0.40053943
1565632627774, 10.906053, 9.299861, -1.2885206, -5.5492606, 0.592081, -0.40373522, -0.17470337, 0.39627838
1565632627776, 11.106197, 9.544153, -1.3244458, -5.5229154, 0.6054958, -0.44208476, -0.17257284, 0.37603834
1565632627786, 11.25889, 9.788445, -1.2334352, -5.4247193, 0.613596, -0.46658584, -0.16618125, 0.36218992
1565632627789, 11.281057, 9.855506, -1.22625, -5.350474, 0.6243259, -0.49002165, -0.1768339, 0.34408042
1565632627794, 11.424865, 10.195599, -1.2334352, -5.005591, 0.61202663, -0.49534798, -0.17257284, 0.3153183
1565632627796, 11.441487, 10.360855, -1.1496094, -4.7157936, 0.6149972, -0.515588, -0.17044231, 0.28868666
1565632627803, 11.257246, 10.265054, -1.2286451, -4.4547367, 0.5884909, -0.5028048, -0.16937704, 0.2545982
1565632627806, 11.405301, 10.483001, -1.2981006, -4.3014555, 0.5639607, -0.48682585, -0.16618125, 0.23116238
1565632627814, 11.323545, 10.492581, -1.2454102, -4.071533, 0.5207923, -0.46019423, -0.16085494, 0.18322548
1565632627825, 11.350553, 10.574012, -1.3148658, -3.911067, 0.49277663, -0.44315, -0.15659387, 0.14807177
1565632627827, 11.289488, 10.5692215, -1.2454102, -3.767366, 0.46655178, -0.4261058, -0.16405073, 0.0958738
1565632627829, 11.242317, 10.5620365, -1.3244458, -3.6164796, 0.42208272, -0.39095205, -0.14913702, 0.05539375
1565632627835, 11.247436, 10.614727, -1.2334352, -3.5087037, 0.40110993, -0.36112466, -0.1736381, 0.018109497
1565632627837, 10.985796, 10.3512745, -1.2430152, -3.4631984, 0.36249527, -0.31638354, -0.17576863, -0.020240024
1565632627846, 10.744613, 10.135723, -1.2957057, -3.3218923, 0.34772193, -0.28336033, -0.1949434, -0.051132694
1565632627848, 10.436805, 9.81958, -1.2310401, -3.3147073, 0.332818, -0.24181503, -0.22264028, -0.05219796
1565632627859, 10.222837, 9.553733, -1.2717555, -3.408113, 0.33001885, -0.19600865, -0.25353295, -0.07882957
1565632627861, 10.084205, 9.405242, -1.2717555, -3.408113, 0.34805468, -0.15339808, -0.29933932, -0.08948222
1565632627864, 9.972642, 9.2184305, -1.3819263, -3.544629, 0.3734766, -0.12783173, -0.34194988, -0.07882957
1565632627867, 9.801717, 8.969349, -1.2693604, -3.7434156, 0.40773338, -0.1107875, -0.3834952, -0.083090626
1565632627878, 9.898399, 8.943004, -1.4154567, -3.999683, 0.44805104, -0.0958738, -0.43249738, -0.06711166
1565632627881, 9.965337, 8.931028, -1.3627661, -4.2056546, 0.49507183, -0.08948222, -0.48149952, -0.07243799
1565632627885, 9.941235, 8.871153, -1.2597803, -4.3062453, 0.5150353, -0.08841695, -0.50387007, -0.05965481
1565632627888, 10.018567, 8.842413, -1.223855, -4.5481424, 0.4990818, -0.08948222, -0.49002165, -0.03089267
1565632627896, 10.018708, 8.698711, -1.099314, -4.84752, 0.48332256, -0.10333065, -0.47191215, -0.014913702
1565632627899, 10.098043, 8.581355, -1.0346485, -5.221143, 0.44388816, -0.14274544, -0.41971418, 0.022370555
1565632627905, 10.374986, 8.631651, -1.1615845, -5.637876, 0.42225477, -0.19813919, -0.36964676, 0.049002163
1565632627909, 10.531176, 8.703502, -1.0825489, -5.829478, 0.41433445, -0.26738137, -0.30360037, 0.08948222
1565632627915, 10.667235, 8.780142, -0.9364527, -5.985154, 0.4206392, -0.33449304, -0.22370553, 0.12250541
1565632627918, 10.754292, 8.873548, -0.8813672, -6.0114994, 0.4589819, -0.4016047, -0.15659387, 0.15765914
1565632627925, 10.966537, 9.10347, -0.96758795, -6.0378447, 0.49539948, -0.45380265, -0.09267801, 0.17576863
1565632627927, 11.135389, 9.386082, -0.97956306, -5.910908, 0.5366766, -0.50387007, -0.041545313, 0.18002969
1565632627935, 11.132891, 9.572893, -1.0130934, -5.592371, 0.5755347, -0.5475459, 0.0127831735, 0.1768339
1565632627938, 11.201779, 9.783655, -0.9627979, -5.369634, 0.5807695, -0.5550028, 0.04474111, 0.165116
1565632627945, 11.116467, 9.932146, -0.8669971, -4.9169755, 0.5771237, -0.5571333, 0.0479369, 0.14274544
1565632627947, 11.062963, 10.015972, -0.74006104, -4.639153, 0.5627199, -0.5486112, 0.046871636, 0.11611383
1565632627955, 11.048819, 10.092612, -0.76401126, -4.430786, 0.54620856, -0.5400891, 0.024501082, 0.0777643
1565632627957, 10.935295, 10.056687, -0.8095166, -4.2176294, 0.5221578, -0.51984906, -0.002130529, 0.049002163
1565632627965, 10.863903, 10.075848, -0.65384036, -4.009263, 0.51778096, -0.515588, -0.036218993, 0.03089267
1565632627966, 10.796485, 10.063872, -0.5987549, -3.8631666, 0.4907818, -0.4825648, -0.08735169, 0.01917476
1565632627975, 10.618052, 9.934542, -0.5963599, -3.7003052, 0.47978428, -0.46552056, -0.11611383, -0.0010652645
1565632627977, 10.776248, 10.056687, -0.6993457, -3.8080812, 0.46594575, -0.44208476, -0.14594123, -0.01917476
1565632627989, 10.771515, 9.999207, -0.68018556, -3.9469924, 0.46791428, -0.4314321, -0.17789917, -0.034088463
1565632627991, 10.673715, 9.958491, -0.71371585, -3.774551, 0.45746133, -0.41225734, -0.19387813, -0.041545313
1565632627998, 10.676754, 9.932146, -0.7544312, -3.8440065, 0.46432823, -0.40266997, -0.221575, -0.066046394
1565632627999, 10.684518, 10.042317, -0.60833496, -3.5973196, 0.45668423, -0.37710363, -0.24074976, -0.09161274
1565632628009, 10.719941, 10.030342, -0.59156984, -3.7362306, 0.46488634, -0.35473305, -0.27483824, -0.12144015
1565632628011, 10.756365, 10.085427, -0.6442603, -3.68354, 0.4834869, -0.34194988, -0.3110572, -0.14168017
1565632628017, 10.797891, 10.104588, -0.5939649, -3.7601807, 0.49333936, -0.3206446, -0.3355583, -0.16724652
1565632628019, 10.7139635, 10.015972, -0.67539555, -3.7434156, 0.50354904, -0.30679616, -0.3536678, -0.18535602
1565632628027, 10.804908, 10.047108, -0.79754156, -3.894302, 0.51861423, -0.31638354, -0.35579833, -0.20559604
1565632628029, 10.752328, 9.939331, -0.7831714, -4.026028, 0.51875097, -0.3121225, -0.35473305, -0.21411815
1565632628037, 10.574164, 9.718989, -0.8813672, -4.071533, 0.5094348, -0.31638354, -0.33768883, -0.2130529
1565632628039, 10.539257, 9.625584, -0.8813672, -4.2008643, 0.4780664, -0.3206446, -0.29827404, -0.1917476
1565632628046, 10.397421, 9.544153, -0.8310718, -4.040398, 0.4562442, -0.3206446, -0.26418558, -0.18855181
1565632628048, 10.406154, 9.498648, -0.78556645, -4.176914, 0.45015585, -0.33768883, -0.23542345, -0.18216023
1565632628057, 10.527173, 9.572893, -0.92926764, -4.2799, 0.4349763, -0.34408042, -0.2034655, -0.17150758
1565632628059, 10.560523, 9.568104, -0.92208254, -4.373306, 0.44329596, -0.36751625, -0.17896444, -0.17150758
1565632628069, 10.739511, 9.702225, -1.0801538, -4.4762917, 0.4583993, -0.39521313, -0.15659387, -0.17150758
1565632628071, 10.750524, 9.721385, -1.2334352, -4.4212065, 0.46364957, -0.40906155, -0.14274544, -0.165116
1565632628078, 10.620822, 9.745335, -1.219065, -4.0427933, 0.47434902, -0.41758367, -0.13209279, -0.18216023
1565632628080, 10.754393, 9.999207, -1.223855, -3.7649708, 0.4607044, -0.4016047, -0.12250541, -0.18961707
1565632628087, 10.773446, 10.037527, -1.2669654, -3.7027004, 0.4592822, -0.3888215, -0.12357068, -0.21092236
1565632628089, 10.61121, 9.982442, -1.1687696, -3.403323, 0.4693563, -0.3834952, -0.13528858, -0.23435818
1565632628097, 10.634295, 10.039923, -1.1543995, -3.3099172, 0.46938166, -0.36005938, -0.15020229, -0.2609898
1565632628105, 10.589121, 9.992022, -1.1615845, -3.307522, 0.4662817, -0.3323625, -0.165116, -0.28229508
1565632628107, 10.4583235, 9.889036, -1.223855, -3.175796, 0.46369484, -0.29507825, -0.17470337, -0.3121225
1565632628110, 10.454009, 9.905801, -1.1927198, -3.1207106, 0.45677242, -0.27164245, -0.18642128, -0.31638354
1565632628120, 10.277019, 9.74294, -1.1567944, -3.05844, 0.45197102, -0.2396845, -0.18109496, -0.33768883
1565632628122, 10.226675, 9.685459, -1.1424243, -3.0776002, 0.46462873, -0.22690132, -0.18642128, -0.36005938
1565632628128, 10.323119, 9.690249, -1.1376343, -3.3721876, 0.49577963, -0.21837921, -0.20879184, -0.3930826
1565632628130, 10.148416, 9.493857, -1.092129, -3.415298, 0.48854077, -0.21411815, -0.21198763, -0.38456047
1565632628140, 9.94571, 9.299861, -1.104104, -3.3482375, 0.50219053, -0.20879184, -0.23435818, -0.3920173
1565632628142, 9.745801, 9.079519, -1.0442286, -3.3841627, 0.50292444, -0.20772657, -0.23861924, -0.39095205
1565632628149, 9.700859, 9.0148535, -1.1496094, -3.3937428, 0.49709055, -0.20240025, -0.22903186, -0.3920173
1565632628151, 9.5642, 8.863968, -1.1352394, -3.408113, 0.4923608, -0.21092236, -0.22370553, -0.38456047
1565632628160, 9.312692, 8.638836, -1.0226734, -3.3242872, 0.4697575, -0.22583607, -0.19813919, -0.36112466
1565632628162, 9.1810465, 8.456815, -0.98914313, -3.4344583, 0.44484964, -0.23329292, -0.1736381, -0.33662358
1565632628169, 9.152673, 8.4448395, -0.977168, -3.391348, 0.4423375, -0.25672874, -0.1555286, -0.32490566
1565632628171, 9.113887, 8.420889, -0.9699829, -3.3482375, 0.4262682, -0.2759035, -0.128897, -0.29827404
1565632628180, 9.020797, 8.344249, -1.0298585, -3.2692018, 0.4267498, -0.28975195, -0.10226539, -0.29614353
1565632628183, 9.075887, 8.411309, -1.0514137, -3.2428565, 0.42136696, -0.30999196, -0.05965481, -0.2790993
1565632628189, 9.088068, 8.47837, -1.0514137, -3.0991554, 0.41667637, -0.32170987, -0.018109497, -0.26418558
1565632628192, 9.061013, 8.468789, -1.1543995, -3.0081446, 0.4214262, -0.3387541, 0.026631612, -0.24927188
1565632628198, 9.003694, 8.411309, -1.1448194, -3.0009596, 0.43905827, -0.35473305, 0.07989483, -0.24607609
1565632628200, 9.069337, 8.52148, -1.1735597, -2.8740237, 0.4468502, -0.36751625, 0.10333065, -0.23222765
1565632628208, 9.071207, 8.57417, -1.2549903, -2.682422, 0.47069383, -0.38242993, 0.14274544, -0.23435818
1565632628210, 8.93127, 8.509504, -1.3124708, -2.3734643, 0.48242486, -0.38775626, 0.17576863, -0.22690132
1565632628218, 8.724713, 8.370594, -1.3747413, -2.0405567, 0.47063595, -0.3749731, 0.18961707, -0.21198763
1565632628220, 8.63366, 8.303533, -1.4465919, -1.8705103, 0.4522885, -0.35260254, 0.19707392, -0.2034655
1565632628228, 8.607626, 8.301138, -1.5807129, -1.6381935, 0.4322467, -0.314253, 0.20879184, -0.21092236
1565632628230, 8.799502, 8.514295, -1.7363893, -1.3867164, 0.40999952, -0.27483824, 0.22903186, -0.20026971
1565632628243, 8.866548, 8.598121, -1.7794995, -1.2334352, 0.37413085, -0.24074976, 0.20879184, -0.19600865
1565632628251, 8.946305, 8.674761, -1.9208057, -1.0466236, 0.34408864, -0.17789917, 0.20985709, -0.2066613
1565632628253, 9.017109, 8.737032, -1.9639161, -1.0562036, 0.31046748, -0.12357068, 0.18535602, -0.21624869
1565632628254, 9.033804, 8.758587, -1.9806812, -0.9867481, 0.30044237, -0.05539375, 0.1768339, -0.23648871
1565632628260, 9.148393, 8.856783, -2.066902, -0.98914313, 0.29085034, 0.00958738, 0.14594123, -0.2514024
1565632628261, 9.023497, 8.705896, -2.1004322, -1.104104, 0.29791048, 0.060720075, 0.12357068, -0.26418558
1565632628270, 8.974458, 8.636441, -2.0333717, -1.3483961, 0.31828597, 0.10439592, 0.111852765, -0.2790993
1565632628271, 8.96303, 8.533455, -2.1195924, -1.7387843, 0.32292452, 0.14594123, 0.0958738, -0.27164245
1565632628285, 8.936847, 8.456815, -2.1818628, -1.8944606, 0.34079975, 0.18216023, 0.10439592, -0.26844665
1565632628286, 8.841298, 8.305928, -2.1219873, -2.1627028, 0.35766718, 0.2034655, 0.10759171, -0.27377295
1565632628288, 8.882706, 8.272398, -1.9878663, -2.5530908, 0.35177284, 0.19707392, 0.11824436, -0.26631612
1565632628290, 8.870636, 8.121511, -1.9184108, -3.0081446, 0.33576453, 0.19281286, 0.12250541, -0.24607609
1565632628305, 8.772966, 7.8915896, -1.9112257, -3.3218923, 0.31097147, 0.16831179, 0.12996227, -0.22690132
1565632628306, 8.770543, 7.807764, -1.7818946, -3.5757644, 0.28329626, 0.14274544, 0.14061491, -0.20026971
1565632628309, 8.6658945, 7.6496925, -1.7555494, -3.6739602, 0.269817, 0.13102753, 0.17150758, -0.16192019
1565632628310, 8.608881, 7.606582, -1.6597486, -3.6739602, 0.24970625, 0.111852765, 0.19068234, -0.11611383
1565632628325, 8.546419, 7.5706573, -1.5447876, -3.652405, 0.255068, 0.1107875, 0.21731395, -0.07456851
1565632628326, 8.563279, 7.575447, -1.6022681, -3.657195, 0.2675935, 0.10013486, 0.24714136, -0.022370555
1565632628329, 8.701909, 7.7502837, -1.5615528, -3.63564, 0.2955221, 0.10226539, 0.27696875, 0.0127831735
1565632628330, 8.761072, 7.8412943, -1.5376027, -3.5925295, 0.32196724, 0.10546118, 0.30040458, 0.0479369
1565632628342, 8.81903, 7.9394903, -1.463357, -3.5494192, 0.33924785, 0.11824436, 0.3121225, 0.060720075
1565632628343, 8.983565, 8.1071415, -1.4154567, -3.6021094, 0.35767198, 0.128897, 0.32170987, 0.08841695
1565632628349, 9.2993145, 8.346643, -1.5256275, -3.8056862, 0.3628817, 0.13635385, 0.31638354, 0.113983296
1565632628352, 9.505922, 8.5502205, -1.5088624, -3.8703518, 0.38120097, 0.14168017, 0.3291667, 0.12996227
1565632628360, 9.747486, 8.830438, -1.3747413, -3.891907, 0.39045975, 0.15978967, 0.33129725, 0.13102753
1565632628361, 9.835221, 8.935819, -1.3795313, -3.8703518, 0.39154375, 0.15978967, 0.33129725, 0.13422333
1565632628370, 9.98825, 9.093889, -1.21188, -3.9493873, 0.41347906, 0.18748654, 0.34194988, 0.13741912
1565632628371, 10.225379, 9.316627, -1.1975098, -4.040398, 0.4135161, 0.21518342, 0.3291667, 0.12783173
1565632628383, 10.34077, 9.479487, -1.0633887, -3.9924977, 0.4225409, 0.2396845, 0.330232, 0.10972224
1565632628384, 10.5958, 9.649534, -1.0514137, -4.248765, 0.42667663, 0.25885928, 0.32597092, 0.09374327
1565632628390, 10.659877, 9.6615095, -0.9316626, -4.406836, 0.43782625, 0.28229508, 0.32277513, 0.08841695
1565632628391, 10.810886, 9.740545, -0.8861573, -4.605623, 0.42263618, 0.28549087, 0.30360037, 0.070307456
1565632628400, 10.975578, 9.821976, -0.7807764, -4.8355446, 0.41818246, 0.294013, 0.29294774, 0.051132694
1565632628401, 11.099433, 9.800421, -0.69695073, -5.1636624, 0.40924737, 0.29294774, 0.28442562, 0.027696876
1565632628411, 11.328297, 9.999207, -0.5748047, -5.2929935, 0.3858214, 0.2908172, 0.25353295, -0.002130529
1565632628412, 11.288542, 9.905801, -0.5412744, -5.3863993, 0.35362127, 0.28016454, 0.21411815, -0.026631612
1565632628421, 11.3650875, 9.910591, -0.42152345, -5.5468655, 0.3325639, 0.27803403, 0.17576863, -0.049002163
1565632628423, 11.289861, 9.821976, -0.34009278, -5.5564456, 0.32017002, 0.28122982, 0.13422333, -0.07350325
1565632628430, 11.245973, 9.678274, -0.1939966, -5.724097, 0.3020358, 0.27057716, 0.099069595, -0.09054748
1565632628432, 11.156635, 9.546548, -0.1341211, -5.7719975, 0.28906965, 0.26418558, 0.05752428, -0.10226539
1565632628441, 11.108932, 9.352551, -0.035925295, -5.9947343, 0.2671351, 0.2396845, 0.034088463, -0.112918034
1565632628443, 10.946326, 9.10347, 0.0, -6.07856, 0.24303211, 0.21518342, 0.0031957934, -0.112918034
1565632628451, 10.84398, 8.902288, 0.10538086, -6.191126, 0.20793407, 0.18535602, 0.00958738, -0.09374327
1565632628453, 10.79406, 8.732242, 0.19639161, -6.342012, 0.16520187, 0.1438107, 0.007456851, -0.080960095
1565632628461, 10.773164, 8.624466, 0.28261232, -6.449788, 0.11539327, 0.10546118, 0.013848438, -0.04474111
1565632628462, 10.723551, 8.502319, 0.33290774, -6.5264287, 0.07329453, 0.058589544, 0.037284255, -0.023435818
1565632628471, 10.825515, 8.631651, 0.24668702, -6.5288234, 0.055260435, 0.00958738, 0.054328486, 0.0031957934
1565632628476, 10.764437, 8.59333, 0.45984375, -6.466553, 0.08563295, -0.040480047, 0.07137272, 0.024501082
1565632628481, 10.815495, 8.698711, 0.41194338, -6.4138627, 0.13254306, -0.08948222, 0.08948222, 0.039414786
1565632628482, 10.876679, 8.940608, 0.31135255, -6.1863356, 0.17668302, -0.12996227, 0.111852765, 0.04261058
1565632628491, 11.04125, 9.2184305, 0.26105714, -6.071375, 0.21422412, -0.16618125, 0.13209279, 0.02876214
