TimeStamp(epoch),mAccelerometerMagnitude(m/s^2),mAccelerometerX(m/s^2),mAccelerometerY(m/s^2),mAccelerometerZ(m/s^2),mGyroscopeMagnitude(rad/s),mGyroscopeX(rad/s),mGyroscopeY(rad/s),mGyroscopeZ(rad/s) 
1565633200408, 9.159722, 0.41912845, -0.6442603, 9.127419, 0.8002427, -0.22583607, -0.38775626, 0.6625945
1565633200418, 9.178102, 0.07185059, -0.42152345, 9.168135, 0.87519175, -0.221575, -0.45380265, 0.71479243
1565633200419, 8.86467, -0.26105714, -0.33769777, 8.854387, 1.011266, -0.23116238, -0.5752428, 0.79894835
1565633200428, 8.58733, -0.47900394, -0.2802173, 8.56938, 1.1497569, -0.22690132, -0.70840085, 0.8767126
1565633200429, 8.26161, -0.5987549, -0.23710695, 8.236472, 1.2912648, -0.26312032, -0.8202536, 0.9619338
1565633200438, 7.7773504, -0.4742139, -0.28979737, 7.7574687, 1.4222381, -0.28868666, -0.9289106, 1.0375676
1565633200439, 7.169862, -0.50774413, -0.2706372, 7.1467385, 1.5568992, -0.35579833, -1.0205233, 1.1206582
1565633200450, 6.5965114, -0.48139894, -0.17004639, 6.576724, 1.673777, -0.42184472, -1.0908308, 1.1973573
1565633200450, 6.6088676, -0.2203418, -0.244292, 6.600674, 1.7600497, -0.47617322, -1.1408982, 1.252751
1565633200459, 6.762717, 0.33530274, -0.32093263, 6.7467704, 1.8123858, -0.535828, -1.1547467, 1.2900352
1565633200460, 6.7400184, 0.8214917, -0.44547364, 6.6749196, 1.8647366, -0.5795039, -1.1781825, 1.3241237
1565633200469, 7.109864, 1.2430152, -0.60354495, 6.974297, 1.900143, -0.6306366, -1.2069446, 1.325189
1565633200470, 6.817904, 1.6190332, -0.8933423, 6.5623536, 1.943702, -0.66579026, -1.2708606, 1.3113406
1565633200480, 7.4989276, 1.9711012, -0.98195803, 7.168294, 1.9844161, -0.67963874, -1.3315805, 1.3049489
1565633200480, 8.13845, 2.3686745, -1.0370435, 7.7167535, 1.959653, -0.72651035, -1.3028184, 1.2708606
1565633200489, 6.9375353, 2.929109, -1.219065, 6.1695704, 2.053502, -0.7307714, -1.4583471, 1.2474247
1565633200489, 10.586782, 3.7458107, -1.463357, 9.793235, 2.1691206, -0.6199839, -1.7694043, 1.0908308
1565633200500, 9.645303, 4.711004, -1.0059083, 8.356223, 2.193478, -0.54648066, -1.8940402, 0.9619338
1565633200500, 9.349794, 4.2248144, -0.47181886, 8.327483, 2.0059044, -0.56672066, -1.7204021, 0.86179894
1565633200508, 8.291882, 3.9829175, -0.57719976, 7.2497244, 1.9089732, -0.5837649, -1.6319852, 0.8000136
1565633200508, 9.129602, 3.8559816, -1.1448194, 8.195757, 1.7485679, -0.5219796, -1.490305, 0.75101143
1565633200520, 8.4703455, 3.6021094, -1.6597486, 7.4844365, 1.5782421, -0.5070659, -1.3177321, 0.7052051
1565633200521, 8.080991, 3.7482057, -1.8106349, 6.926397, 1.4716091, -0.50387007, -1.2175972, 0.65513766
1565633200531, 8.863972, 3.6332448, -1.6357985, 7.917935, 1.3656944, -0.5219796, -1.1057445, 0.608266
1565633200531, 7.531444, 3.4871485, -1.590293, 6.4833183, 1.2929822, -0.52837116, -1.019458, 0.5944176
1565633200540, 8.696721, 3.293152, -1.5112574, 7.9059596, 1.2129232, -0.5230448, -0.90973586, 0.608266
1565633200541, 7.2061925, 3.271597, -1.7531544, 6.1767554, 1.1665282, -0.5539375, -0.8309063, 0.60293967
1565633200550, 7.984302, 3.2284865, -1.7124391, 7.0988383, 1.1171399, -0.5816344, -0.74675035, 0.5933523
1565633200550, 7.312875, 3.4057178, -1.8681153, 6.1959157, 1.1132141, -0.62317973, -0.71159667, 0.58696073
1565633200560, 7.4908624, 3.7434156, -2.0309765, 6.1623855, 1.1341565, -0.660464, -0.71798825, 0.5784386
1565633200561, 8.020824, 3.8727467, -2.1195924, 6.696475, 1.1632966, -0.72011876, -0.73609775, 0.5411543
1565633200571, 7.4186997, 4.040398, -2.3758595, 5.750442, 1.2191997, -0.78723043, -0.77231675, 0.51984906
1565633200571, 7.5480556, 4.0667434, -2.3016138, 5.927674, 1.2979316, -0.8490158, -0.8543421, 0.48363006
1565633200581, 7.5845046, 4.169729, -2.3830445, 5.870193, 1.3750237, -0.92038846, -0.9214538, 0.44101948
1565633200581, 7.679071, 4.2343946, -2.3758595, 5.949229, 1.4471639, -0.9864349, -0.9757822, 0.4111921
1565633200591, 7.6395535, 4.380491, -2.3447242, 5.8031325, 1.5551561, -1.0929613, -1.0460896, 0.36005938
1565633200592, 8.045281, 4.8331494, -2.4788454, 5.934859, 1.6518697, -1.1781825, -1.1195929, 0.29507825
1565633200601, 8.267289, 5.206773, -2.5818312, 5.879773, 1.7519426, -1.2740563, -1.180313, 0.23009712
1565633200602, 8.4636, 5.4510646, -2.5985963, 5.9300685, 1.8637153, -1.3688648, -1.2559468, 0.14913702
1565633200611, 8.791285, 5.5372853, -2.7422974, 6.253396, 1.971356, -1.4562165, -1.3262542, 0.082025364
1565633200612, 8.922291, 5.4438796, -2.7446926, 6.5144534, 2.037147, -1.5169365, -1.3592775, 0.035153728
1565633200622, 9.216371, 5.4462748, -2.816543, 6.8808913, 2.09268, -1.5819178, -1.3699301, -0.011717909
1565633200622, 9.538357, 5.3097587, -3.0009596, 7.33355, 2.129057, -1.6266588, -1.3731259, -0.037284255
1565633200632, 9.814803, 5.024751, -3.1159205, 7.8341093, 2.1350946, -1.6415725, -1.3646038, -0.041545313
1565633200632, 10.010777, 4.785249, -3.1853762, 8.195757, 2.131094, -1.6490294, -1.3496901, -0.024501082
1565633200642, 10.1553135, 4.409231, -3.1374757, 8.59333, 2.097573, -1.6405072, -1.3070794, 0.00958738
1565633200642, 10.013675, 4.2248144, -3.0991554, 8.533455, 2.0375707, -1.6330504, -1.2175972, 0.0479369
1565633200652, 10.312584, 4.488267, -3.1614258, 8.729847, 1.9537301, -1.6170714, -1.0940266, 0.07243799
1565633200652, 10.557551, 4.9552956, -3.420088, 8.672366, 1.8981081, -1.6010925, -1.0173275, 0.066046394
1565633200664, 11.113715, 5.48699, -3.6116896, 8.964559, 1.8474604, -1.5584819, -0.9917612, 0.025566347
1565633200665, 11.74797, 5.8103175, -3.65959, 9.532178, 1.819624, -1.4977618, -1.0333065, -0.004261058
1565633200672, 12.623305, 5.7863674, -3.3697927, 10.700948, 1.7648224, -1.4157364, -1.0535465, -0.018109497
1565633200672, 10.896725, 5.625901, -3.4464333, 8.672366, 1.7432352, -1.3635385, -1.0855045, -0.036218993
1565633200682, 12.322217, 5.9875493, -3.295547, 10.253079, 1.7065593, -1.3166668, -1.0844392, -0.05219796
1565633200683, 11.167103, 6.3132715, -3.4679885, 8.533455, 1.7184384, -1.3081448, -1.1089402, -0.10972224
1565633200692, 11.743264, 6.9168167, -3.3266823, 8.8879175, 1.7369187, -1.2953615, -1.1430287, -0.18002969
1565633200693, 11.623347, 6.969507, -3.1925611, 8.737032, 1.760497, -1.3187973, -1.1408982, -0.24181503
1565633200703, 10.646105, 6.969507, -3.0177248, 7.460486, 1.8133836, -1.3539511, -1.1696603, -0.29507825
1565633200703, 11.669158, 7.194639, -2.8261232, 8.741821, 1.8773472, -1.4125407, -1.1813782, -0.3653857
1565633200712, 10.433526, 7.216194, -3.056045, 6.8880763, 1.9696945, -1.4679344, -1.2378373, -0.43888897
1565633200713, 11.88767, 7.1778736, -3.0919704, 8.957374, 2.0353136, -1.5094798, -1.2751216, -0.4878911
1565633200722, 10.670669, 7.0150127, -3.0344899, 7.446116, 2.1193862, -1.5712651, -1.3187973, -0.53263223
1565633200723, 11.414029, 6.7898808, -3.0153298, 8.665181, 2.1482549, -1.5947009, -1.32945, -0.551807
1565633200732, 11.120208, 6.471343, -3.178191, 8.466394, 2.1734214, -1.6405072, -1.3145363, -0.551807
1565633200733, 10.996045, 6.3707523, -3.2093263, 8.368198, 2.154804, -1.6468989, -1.2729911, -0.5571333
1565633200743, 11.973788, 6.351592, -3.2284865, 9.623189, 2.122123, -1.6479641, -1.2069446, -0.5752428
1565633200743, 11.144361, 6.353987, -3.420088, 8.49274, 2.1026483, -1.6287893, -1.196292, -0.58056915
1565633200753, 12.699383, 6.2677665, -3.4416432, 10.494976, 2.0429232, -1.5947009, -1.1334413, -0.588026
1565633200753, 11.386308, 5.9875493, -3.4967287, 9.031619, 2.0055437, -1.567004, -1.1100056, -0.5784386
1565633200763, 12.585069, 5.8965383, -3.5087037, 10.550061, 1.9293624, -1.506284, -1.0578076, -0.5784386
1565633200764, 11.897319, 5.5516553, -3.5829494, 9.8938265, 1.866576, -1.4594123, -1.0279802, -0.5454154
1565633200772, 11.89762, 5.3073635, -3.5134938, 10.051897, 1.7917241, -1.401888, -0.99282646, -0.5091964
1565633200773, 11.96347, 5.158872, -3.530259, 10.200389, 1.7318596, -1.3411679, -0.9800433, -0.49002165
1565633200783, 11.716409, 5.216353, -3.5566041, 9.869876, 1.6812705, -1.3156016, -0.94488955, -0.45060685
1565633200784, 11.516119, 5.336104, -3.5494192, 9.568104, 1.6343343, -1.2900352, -0.9044095, -0.4346279
1565633200793, 11.305402, 5.4127445, -3.5566041, 9.266331, 1.5832647, -1.2719258, -0.84688526, -0.41438788
1565633200794, 11.1638975, 5.362449, -3.5015187, 9.144185, 1.568126, -1.2665994, -0.83729786, -0.3920173
1565633200804, 11.136612, 5.582791, -3.4608033, 8.993299, 1.570297, -1.2644689, -0.84155893, -0.39840892
1565633200804, 11.1976385, 5.7911572, -3.4703834, 8.933423, 1.582404, -1.2612731, -0.8671253, -0.4016047
1565633200814, 11.180031, 5.9013286, -3.4488282, 8.847202, 1.6034636, -1.2644689, -0.8990832, -0.4048005
1565633200814, 11.02646, 5.9133034, -3.3338673, 8.689131, 1.6501565, -1.2740563, -0.9683254, -0.40266997
1565633200823, 11.061485, 6.119275, -3.4536183, 8.5430355, 1.7033539, -1.3049489, -1.0120013, -0.41758367
1565633200824, 11.704802, 6.758745, -4.0499783, 8.655601, 1.8261222, -1.3379722, -1.1430287, -0.4878911
1565633200834, 12.149522, 7.5251517, -4.064348, 8.629255, 1.8867869, -1.28897, -1.2602079, -0.5571333
1565633200834, 12.371566, 7.4054008, -3.5206788, 9.263936, 1.9885685, -1.2389026, -1.4242586, -0.62531024
1565633200844, 12.23155, 6.947952, -3.0991554, 9.577683, 2.1141832, -1.2048141, -1.6010925, -0.6743124
1565633200844, 12.310593, 6.878496, -3.300337, 9.6615095, 2.2548215, -1.1515509, -1.8024274, -0.7137272
1565633200854, 12.366375, 7.060518, -3.67875, 9.462723, 2.3764007, -1.1100056, -1.9664782, -0.74035877
1565633200854, 12.149649, 6.928792, -3.8128712, 9.223221, 2.5008874, -1.087635, -2.1177456, -0.76592517
1565633200864, 11.671577, 6.6773148, -3.7529957, 8.806487, 2.5733907, -1.0908308, -2.198706, -0.773382
1565633200864, 10.869541, 6.1695704, -3.4991236, 8.236472, 2.5426638, -1.099353, -2.1731396, -0.7307714
1565633200875, 10.451862, 5.271438, -3.2093263, 8.435259, 2.3861356, -1.1206582, -2.0069582, -0.6402239
1565633200875, 9.2754755, 4.967271, -3.427273, 7.0437527, 2.2349248, -1.144094, -1.8407769, -0.5454154
1565633200884, 10.925038, 5.225933, -3.535049, 8.919053, 2.053919, -1.1622036, -1.6245283, -0.47830373
1565633200885, 9.852622, 5.609136, -3.896697, 7.101233, 1.9076847, -1.1856394, -1.4327807, -0.4250405
1565633200894, 11.586439, 6.1791506, -3.896697, 8.993299, 1.7173563, -1.164334, -1.2037488, -0.38029942
1565633200895, 11.001928, 6.478528, -3.9517825, 7.965835, 1.5698749, -1.144094, -1.0173275, -0.3472762
1565633200904, 12.113741, 6.952742, -3.9901028, 9.081915, 1.4478997, -1.0823087, -0.90014845, -0.3387541
1565633200905, 12.647522, 7.2760696, -4.030818, 9.527389, 1.367878, -1.0056096, -0.8490158, -0.37284255
1565633200917, 12.471752, 7.577842, -4.009263, 9.057964, 1.3345455, -0.9044095, -0.8905611, -0.41225734
1565633200918, 13.509529, 7.726333, -3.8751419, 10.38241, 1.3106719, -0.80533993, -0.9353022, -0.44101948
1565633200925, 12.046919, 7.781419, -3.923042, 8.3179035, 1.3819108, -0.7392935, -1.063134, -0.4825648
1565633200926, 12.993395, 7.7790236, -3.8631666, 9.663904, 1.4571521, -0.67218184, -1.1813782, -0.5251754
1565633200935, 11.393164, 7.6425076, -3.9805226, 7.453301, 1.5945017, -0.63702816, -1.3518206, -0.55606806
1565633200935, 11.849664, 7.6137676, -3.8320315, 8.231683, 1.7405112, -0.588026, -1.5350461, -0.572047
1565633200944, 10.912768, 7.206614, -3.8248463, 7.247329, 1.948665, -0.58269966, -1.7651432, -0.58483016
1565633200945, 10.310049, 6.945557, -3.7601807, 6.6270194, 2.2169144, -0.5539375, -2.0644825, -0.588026
1565633200954, 11.186347, 7.4509063, -3.7410207, 7.4580913, 2.5577607, -0.54435015, -2.4234767, -0.6103965
1565633200955, 10.609739, 7.829319, -4.009263, 5.9324636, 2.9079616, -0.5187838, -2.783536, -0.6625945
1565633200965, 10.696796, 7.1539235, -3.7098854, 7.0341725, 3.16759, -0.49641323, -3.06157, -0.64341974
1565633200966, 9.037642, 6.5360084, -3.5829494, 5.110972, 3.4728444, -0.50813115, -3.3832798, -0.5965481
1565633200975, 8.924516, 6.353987, -3.6931202, 5.0630717, 3.6738985, -0.5368933, -3.593137, -0.54648066
1565633200976, 8.866571, 6.4976883, -3.786526, 4.6966333, 3.741287, -0.58696073, -3.661314, -0.49747851
1565633200985, 8.507418, 6.5719337, -3.8296363, 3.8104763, 3.6390765, -0.6625945, -3.552657, -0.42717105
1565633200986, 8.584039, 6.967112, -3.894302, 3.159031, 3.4211237, -0.75633776, -3.3161683, -0.36751625
1565633200995, 8.946897, 7.577842, -3.9278321, 2.682422, 3.1256096, -0.85753787, -2.9870014, -0.33449304
1565633200996, 9.474294, 8.152647, -4.145779, 2.4716604, 2.789172, -0.9619338, -2.5992453, -0.31318775
1565633201006, 9.890823, 8.665181, -4.2343946, 2.193838, 2.4410956, -1.0727214, -2.1688783, -0.32277513
1565633201006, 10.341321, 9.074729, -4.390071, 2.3064039, 2.151148, -1.164334, -1.7789917, -0.3270362
1565633201016, 10.546249, 9.249566, -4.4451566, 2.430945, 1.938284, -1.2325109, -1.4530207, -0.35579833
1565633201016, 10.647762, 9.283096, -4.287085, 2.9698243, 1.806541, -1.2836437, -1.2197278, -0.35792887
1565633201026, 10.814732, 9.407638, -4.24637, 3.2284865, 1.7144341, -1.3092101, -1.0375676, -0.38562572
1565633201027, 10.908126, 9.357342, -4.430786, 3.4344583, 1.6570126, -1.3166668, -0.92784536, -0.3888215
1565633201036, 11.0064745, 9.175321, -4.6918435, 3.8655617, 1.6364254, -1.3017532, -0.9076053, -0.39947417
1565633201039, 10.95899, 8.971744, -4.734954, 4.145779, 1.6448542, -1.2687299, -0.96086854, -0.41545314
1565633201046, 10.896206, 8.784932, -4.5002418, 4.615203, 1.6781394, -1.216532, -1.0791129, -0.41438788
1565633201047, 10.847868, 8.595725, -4.550537, 4.8044095, 1.7444638, -1.1451592, -1.2548815, -0.39627838
1565633201056, 10.791833, 8.48316, -4.5649076, 4.864285, 1.8423313, -1.0823087, -1.4413028, -0.38136467
1565633201057, 10.794103, 8.490345, -4.6199927, 4.8044095, 1.9307227, -1.0056096, -1.6021577, -0.386691
1565633201066, 10.875691, 8.619676, -4.687053, 4.6918435, 2.024446, -0.95234644, -1.7459685, -0.37816888
1565633201069, 11.31421, 8.816068, -4.7086086, 5.3025737, 2.0761335, -0.8863, -1.8365159, -0.3898868
1565633201076, 10.699113, 8.710687, -4.7876444, 3.9589674, 2.1038911, -0.8447547, -1.8876486, -0.386691
1565633201077, 10.82865, 8.784932, -4.7325587, 4.2056546, 2.077433, -0.7755125, -1.8887138, -0.3834952
1565633201086, 10.947997, 8.840017, -4.6990285, 4.430786, 2.0169044, -0.76912093, -1.8237327, -0.38775626
1565633201086, 10.5916605, 8.976534, -4.8259645, 2.8836036, 1.9168737, -0.73609775, -1.7278589, -0.3834952
1565633201095, 11.070699, 9.148975, -4.6846585, 4.112249, 1.7794728, -0.7318367, -1.5744609, -0.3898868
1565633201096, 10.853764, 9.469908, -4.9624805, 1.8705103, 1.6939721, -0.7637946, -1.4562165, -0.406931
1565633201103, 11.369634, 9.735755, -4.8571, 3.300337, 1.5684992, -0.79255676, -1.284709, -0.4261058
1565633201104, 11.158422, 9.8938265, -4.9457154, 1.4705421, 1.4632751, -0.8447547, -1.107875, -0.44741106
1565633201114, 11.237607, 9.956097, -4.8427296, 1.9255958, 1.3623633, -0.87777793, -0.9331717, -0.46339005
1565633201114, 11.276454, 9.951306, -4.981641, 1.8202149, 1.3084297, -0.9353022, -0.773382, -0.4889564
1565633201124, 11.279118, 9.982442, -5.120552, 1.1615845, 1.281591, -0.9619338, -0.6668556, -0.5219796
1565633201125, 11.225256, 9.7812605, -4.854705, 2.6009912, 1.2712587, -1.0077401, -0.5795039, -0.51452273
1565633201134, 10.737764, 9.441168, -5.0439115, 0.85023195, 1.2849766, -1.0407634, -0.5613944, -0.5028048
1565633201134, 10.759481, 9.239985, -4.864285, 2.5938063, 1.2756528, -1.0599382, -0.535828, -0.46552056
1565633201144, 10.262221, 8.952583, -4.91937, 0.98195803, 1.3117113, -1.0950918, -0.58056915, -0.4293016
1565633201145, 10.285703, 8.837623, -4.773274, 2.215393, 1.3266276, -1.1068097, -0.6221144, -0.38456047
1565633201154, 10.093934, 8.751402, -4.6918435, 1.8130299, 1.3540119, -1.1302456, -0.664725, -0.33768883
1565633201155, 10.0265665, 8.732242, -4.646338, 1.6405884, 1.3614187, -1.1217234, -0.71798825, -0.28229508
1565633201164, 10.269623, 8.866363, -4.524192, 2.5267458, 1.3756, -1.1206582, -0.7595336, -0.24394555
1565633201165, 10.365387, 9.115445, -4.512217, 1.9974464, 1.3731403, -1.1142666, -0.77125144, -0.221575
1565633201174, 10.611508, 9.438772, -4.416416, 2.0022364, 1.3705823, -1.1025487, -0.78723043, -0.20772657
1565633201175, 10.911996, 9.659114, -4.5816727, 2.186653, 1.3608936, -1.0865698, -0.7914915, -0.21198763
1565633201184, 11.043261, 9.81, -4.4738965, 2.3878345, 1.3401971, -1.0599382, -0.78936094, -0.22264028
1565633201185, 11.119111, 9.843531, -4.485872, 2.572251, 1.2984682, -1.0173275, -0.773382, -0.23009712
1565633201195, 11.045296, 9.74294, -4.3469605, 2.8596535, 1.2507557, -0.96939063, -0.753142, -0.2396845
1565633201195, 11.082563, 9.740545, -4.3469605, 3.0081446, 1.1769528, -0.9054748, -0.7137272, -0.23648871
1565633201205, 10.996009, 9.690249, -4.2751102, 2.955454, 1.1052605, -0.8479505, -0.66365975, -0.24927188
1565633201206, 10.974332, 9.733359, -4.272715, 2.7279274, 1.0375595, -0.79255676, -0.62317973, -0.24501082
1565633201215, 10.938199, 9.671089, -4.3421707, 2.694397, 1.0025406, -0.7584683, -0.6018744, -0.25992453
1565633201216, 10.900941, 9.766891, -4.1936793, 2.4189699, 0.9785537, -0.7222493, -0.60080916, -0.27377295
1565633201225, 10.883957, 9.68067, -4.3493557, 2.4141798, 0.97927934, -0.68816084, -0.6402239, -0.27483824
1565633201226, 10.88156, 9.735755, -4.267925, 2.3255641, 1.0135968, -0.664725, -0.7073356, -0.29188246
1565633201236, 10.6907015, 9.524993, -4.3182206, 2.2177882, 1.0229968, -0.63383234, -0.7488809, -0.28975195
1565633201236, 10.350994, 9.316627, -4.0427933, 1.9998415, 1.0477638, -0.60507023, -0.80747044, -0.28229508
1565633201245, 10.34116, 9.256751, -4.0427933, 2.215393, 1.0825629, -0.5752428, -0.8788432, -0.26205507
1565633201246, 10.397509, 9.350157, -4.0667434, 2.0357666, 1.1034346, -0.5422196, -0.92784536, -0.25033715
1565633201256, 10.346466, 9.366921, -4.028423, 1.7555494, 1.0956539, -0.51984906, -0.9353022, -0.23542345
1565633201256, 10.569292, 9.666299, -4.028423, 1.4298267, 1.0727535, -0.5049353, -0.9214538, -0.21624869
1565633201265, 10.306637, 9.445957, -3.9924977, 1.0298585, 1.0237596, -0.49534798, -0.87351686, -0.19920446
1565633201266, 10.401374, 9.522598, -4.038003, 1.096919, 0.98752946, -0.49002165, -0.83516735, -0.19387813
1565633201276, 10.517389, 9.6758795, -4.0356083, 0.84065187, 0.9598624, -0.49002165, -0.8042747, -0.18535602
1565633201276, 10.53993, 9.704619, -4.0859036, 0.46463382, 0.93599653, -0.5070659, -0.76485986, -0.18429075
1565633201286, 10.3614, 9.558523, -3.9972878, 0.122146, 0.91403294, -0.5400891, -0.716923, -0.17257284
1565633201286, 10.301272, 9.505833, -3.9661524, -0.1580713, 0.89361465, -0.58909124, -0.64768076, -0.17896444
1565633201296, 10.477271, 9.68067, -3.9829175, -0.4406836, 0.88475835, -0.63915867, -0.5784386, -0.19920446
1565633201296, 10.682737, 9.917776, -3.9374123, -0.50534916, 0.8825239, -0.680704, -0.5123922, -0.23009712
1565633201306, 10.748859, 9.958491, -4.030818, -0.34488282, 0.89865774, -0.7254451, -0.45806372, -0.26738137
1565633201306, 10.819238, 10.035132, -4.0427933, -0.08861572, 0.9007616, -0.72651035, -0.4314321, -0.3121225
1565633201316, 10.767906, 9.960887, -4.0882983, 0.119750984, 0.91169906, -0.7233146, -0.4250405, -0.3568636
1565633201317, 10.740887, 9.891431, -4.169729, 0.37362307, 0.9207324, -0.721184, -0.42397526, -0.38456047
1565633201326, 10.6615305, 9.81, -4.150569, 0.4526587, 0.94610053, -0.70840085, -0.45912898, -0.42717105
1565633201327, 10.364892, 9.496253, -4.1218286, 0.5125342, 0.9616323, -0.69029135, -0.49321744, -0.4527374
1565633201336, 10.083632, 9.16095, -4.145779, 0.7544312, 0.96655124, -0.6498113, -0.5496765, -0.45806372
1565633201337, 9.800527, 8.871153, -4.030818, 1.0514137, 0.95499283, -0.60080916, -0.59867865, -0.43888897
1565633201347, 9.477036, 8.547825, -3.9493873, 1.0729688, 0.97577757, -0.5539375, -0.67963874, -0.4282363
1565633201347, 9.237654, 8.346643, -3.8679566, 0.84065187, 0.96871674, -0.5219796, -0.71159667, -0.39947417
1565633201356, 9.009835, 8.138277, -3.8535867, 0.30895755, 0.9504679, -0.5123922, -0.70840085, -0.37284255
1565633201357, 8.827379, 7.9394903, -3.8583767, 0.0071850587, 0.90748155, -0.49960902, -0.6828345, -0.32810146
1565633201366, 8.976892, 8.1071415, -3.8535867, -0.09340577, 0.862907, -0.49321744, -0.6498113, -0.28122982
1565633201368, 9.110656, 8.265213, -3.8248463, -0.24668702, 0.8409209, -0.50387007, -0.62104917, -0.25992453
1565633201377, 9.164734, 8.303533, -3.8679566, -0.28740236, 0.82669806, -0.51771855, -0.60080916, -0.23329292
1565633201378, 9.444088, 8.6077, -3.8535867, -0.4981641, 0.7905303, -0.5209143, -0.551807, -0.221575
1565633201387, 9.548418, 8.741821, -3.803291, -0.5364844, 0.7713015, -0.53263223, -0.51984906, -0.20240025
1565633201388, 9.629611, 8.847202, -3.7386258, -0.69216067, 0.75254583, -0.5336975, -0.49428272, -0.19281286
1565633201397, 9.846439, 9.079519, -3.7314405, -0.76880133, 0.7471408, -0.5486112, -0.46552056, -0.20133498
1565633201398, 9.882737, 9.096285, -3.7506008, -0.9268726, 0.7310066, -0.5656554, -0.42290998, -0.18855181
1565633201407, 10.031802, 9.208851, -3.8080812, -1.1543995, 0.7345985, -0.60080916, -0.38242993, -0.18002969
1565633201408, 9.919217, 9.0891, -3.7338357, -1.3555812, 0.7465452, -0.5954828, -0.40586576, -0.1949434
1565633201418, 10.488751, 9.881851, -3.415298, -0.83586186, 0.7793522, -0.5997439, -0.43675843, -0.23861924
1565633201418, 10.754311, 9.975257, -3.906277, -0.9436377, 0.792077, -0.61678815, -0.4133226, -0.2759035
1565633201427, 10.252853, 9.285491, -4.1793094, -1.1975098, 0.7842669, -0.6530071, -0.36432046, -0.23648871
1565633201428, 9.554408, 8.598121, -3.891907, -1.4873072, 0.74726236, -0.6466155, -0.31851408, -0.19707392
1565633201437, 9.65597, 8.909473, -3.5829494, -1.0106983, 0.7490483, -0.628506, -0.35899413, -0.19281286
1565633201438, 10.028459, 9.364527, -3.551814, -0.51013917, 0.7689446, -0.60720074, -0.4165184, -0.221575
1565633201448, 10.061915, 9.366921, -3.6380348, -0.51732427, 0.78526753, -0.58483016, -0.46871635, -0.23435818
1565633201448, 9.929095, 9.2256155, -3.6116896, -0.6562354, 0.7861262, -0.5550028, -0.50600064, -0.23222765
1565633201458, 9.953643, 9.266331, -3.551814, -0.7711963, 0.7744092, -0.531567, -0.5070659, -0.24501082
1565633201459, 10.130174, 9.479487, -3.4344583, -0.98195803, 0.7724636, -0.5113269, -0.5113269, -0.27164245
1565633201468, 10.259228, 9.627979, -3.4057178, -0.977168, 0.77698755, -0.48469532, -0.52837116, -0.29933932
1565633201469, 10.298571, 9.663904, -3.432063, -0.9436377, 0.7814904, -0.45060685, -0.5581986, -0.30999196
1565633201478, 10.296741, 9.64714, -3.4608033, -0.98914313, 0.80696577, -0.42077947, -0.6018744, -0.33449304
1565633201479, 10.424317, 9.800421, -3.3793726, -1.094524, 0.84337264, -0.3920173, -0.6530071, -0.36218992
1565633201488, 10.583899, 9.910591, -3.422483, -1.4441968, 0.87484163, -0.3749731, -0.69348717, -0.37923414
1565633201489, 10.579906, 9.874666, -3.4009278, -1.6908839, 0.9209062, -0.36645097, -0.7307714, -0.42397526
1565633201498, 10.678746, 9.956097, -3.3769777, -1.8729054, 0.9448559, -0.36432046, -0.75633776, -0.43356264
1565633201499, 10.656274, 9.848321, -3.4703834, -2.1267774, 0.9693333, -0.36645097, -0.77231675, -0.45699844
1565633201509, 10.63466, 9.81, -3.3889527, -2.318379, 0.9678032, -0.38456047, -0.75633776, -0.46552056
1565633201509, 10.549587, 9.74773, -3.3314724, -2.2752686, 0.9251188, -0.38029942, -0.7094661, -0.45593318
1565633201519, 10.494604, 9.718989, -3.2572267, -2.2513185, 0.8945818, -0.39414784, -0.65513766, -0.4644553
1565633201520, 10.473074, 9.651929, -3.300337, -2.3734643, 0.86044425, -0.39414784, -0.6125271, -0.45806372
1565633201528, 10.641921, 9.814791, -3.2644117, -2.5027955, 0.8335903, -0.40906155, -0.5539375, -0.46978164
1565633201529, 10.89893, 10.032737, -3.1997461, -2.8093581, 0.8116406, -0.4346279, -0.48469532, -0.48469532
1565633201539, 10.938662, 10.061478, -3.2069314, -2.8524685, 0.8029586, -0.46232477, -0.41438788, -0.5091964
1565633201540, 10.915583, 10.063872, -3.2189064, -2.7399025, 0.7969019, -0.4910869, -0.330232, -0.5336975
1565633201549, 11.056642, 10.207574, -3.3147073, -2.6584718, 0.77880526, -0.49321744, -0.2609898, -0.5432849
1565633201550, 10.907928, 10.126143, -3.293152, -2.3662794, 0.7813183, -0.49854377, -0.20772657, -0.56459016
1565633201559, 10.711604, 9.975257, -3.2165112, -2.2106032, 0.7696283, -0.48149952, -0.17896444, -0.57311225
1565633201560, 10.63458, 9.932146, -3.1614258, -2.1100123, 0.7800915, -0.48363006, -0.16618125, -0.58909124
1565633201569, 10.553646, 9.836346, -3.2524366, -2.0118165, 0.79234266, -0.46978164, -0.19600865, -0.60720074
1565633201570, 10.552622, 9.821976, -3.3745828, -1.8705103, 0.77364606, -0.4495416, -0.21944448, -0.5901565
1565633201579, 10.413526, 9.625584, -3.2476466, -2.2896388, 0.8003022, -0.46232477, -0.2514024, -0.60293967
1565633201580, 10.365106, 9.606423, -3.3650026, -1.9567311, 0.82646745, -0.41758367, -0.34301516, -0.62531024
1565633201589, 10.414872, 9.7142, -3.4967287, -1.3699512, 0.8758042, -0.36112466, -0.48043427, -0.63702816
1565633201590, 10.18331, 9.536968, -3.408113, -1.0633887, 0.9339532, -0.3089267, -0.58483016, -0.6593987
1565633201603, 10.06634, 9.378897, -3.422483, -1.2861255, 0.9620606, -0.26418558, -0.64555025, -0.6625945
1565633201603, 10.08718, 9.316627, -3.6021094, -1.4058765, 1.0006536, -0.22050974, -0.7137272, -0.66579026
1565633201610, 9.892722, 9.115445, -3.671565, -1.1376343, 1.0359559, -0.16937704, -0.78083885, -0.6593987
1565633201612, 9.492628, 8.796907, -3.4751735, -0.8047266, 1.0658592, -0.10652645, -0.83729786, -0.6508766
1565633201624, 9.265513, 8.598121, -3.415298, -0.50774413, 1.0756634, -0.05219796, -0.8767126, -0.62104917
1565633201625, 8.964914, 8.267608, -3.439248, -0.43349856, 1.0760379, 0.04261058, -0.90014845, -0.588026
1565633201634, 8.724224, 8.01613, -3.4248781, -0.3520679, 1.0399785, 0.099069595, -0.8745821, -0.5539375
1565633201635, 8.589847, 7.8365045, -3.4560134, -0.6562354, 0.9764431, 0.14061491, -0.8309063, -0.49321744
1565633201644, 8.523868, 7.7311234, -3.4679885, -0.9268726, 0.860882, 0.14594123, -0.7286409, -0.4346279
1565633201645, 8.60878, 7.7526784, -3.4655933, -1.4130616, 0.74083763, 0.1438107, -0.6146576, -0.38775626
1565633201654, 8.611015, 7.699988, -3.4464333, -1.7268091, 0.58781075, 0.111852765, -0.46871635, -0.33662358
1565633201655, 8.643858, 7.704778, -3.4416432, -1.8729054, 0.43225855, 0.083090626, -0.31851408, -0.28016454
1565633201665, 8.5450945, 7.6209526, -3.3290772, -1.9639161, 0.2893718, 0.053263225, -0.17150758, -0.22690132
1565633201666, 8.580772, 7.702383, -3.2069314, -2.0046315, 0.17806494, 0.017044231, -0.04474111, -0.17150758
1565633201674, 8.665371, 7.7790236, -3.2021413, -2.078877, 0.15451108, -0.010652645, 0.060720075, -0.14168017
1565633201675, 8.670526, 7.831714, -3.0919704, -2.069297, 0.15064362, -0.0479369, 0.09267801, -0.10865697
1565633201684, 8.503073, 7.7574687, -2.8620484, -1.9830762, 0.16388808, -0.058589544, 0.11930962, -0.0958738
1565633201685, 8.78958, 8.037686, -3.0105398, -1.8944606, 0.16656663, -0.07563378, 0.11504856, -0.09374327
1565633201691, 9.031611, 8.303533, -3.1087356, -1.719624, 0.14011367, -0.066046394, 0.08522116, -0.08948222
1565633201691, 9.0438795, 8.372989, -3.0823903, -1.477727, 0.12350638, -0.054328486, 0.03089267, -0.10652645
1565633201701, 8.910454, 8.310719, -2.9794044, -1.2046949, 0.12413417, -0.02876214, -0.024501082, -0.11824436
1565633201701, 8.766866, 8.186177, -2.8859987, -1.2310401, 0.1541876, 0.0063915867, -0.09054748, -0.12463594
1565633201713, 8.666185, 8.095166, -2.8644435, -1.1687696, 0.20841376, 0.03195793, -0.15339808, -0.13741912
1565633201714, 8.423328, 7.800579, -2.9003687, -1.3004956, 0.24204956, 0.051132694, -0.20240025, -0.12250541
1565633201724, 8.382291, 7.699988, -2.9937747, -1.4178516, 0.2645826, 0.053263225, -0.23116238, -0.11717909
1565633201725, 8.340487, 7.6520877, -3.0009596, -1.4154567, 0.31340688, 0.07350325, -0.28122982, -0.11717909
1565633201734, 8.180304, 7.5155716, -2.936294, -1.346001, 0.34315076, 0.07350325, -0.3174488, -0.10759171
1565633201735, 8.141578, 7.4509063, -3.0728102, -1.1520045, 0.39494458, 0.10759171, -0.3653857, -0.10439592
1565633201744, 8.038409, 7.4006104, -3.0081446, -0.8933423, 0.4422785, 0.13209279, -0.41545314, -0.07456851
1565633201745, 8.088726, 7.4988065, -2.9626393, -0.6466553, 0.49778518, 0.1768339, -0.45912898, -0.07563378
1565633201752, 8.350776, 7.7239385, -3.1087356, -0.64186525, 0.51777774, 0.221575, -0.45912898, -0.09054748
1565633201752, 8.533404, 7.8412943, -3.283572, -0.7424561, 0.5357814, 0.26418558, -0.45806372, -0.08628642
1565633201762, 8.547329, 7.8484793, -3.293152, -0.7831714, 0.5307797, 0.29188246, -0.4346279, -0.08735169
1565633201762, 8.433913, 7.7430983, -3.2428565, -0.81191164, 0.52529526, 0.32597092, -0.406931, -0.06391586
1565633201772, 8.257575, 7.582632, -3.1446607, -0.89573735, 0.51708245, 0.34940675, -0.37923414, -0.03834952
1565633201772, 8.1554985, 7.4940166, -3.0752053, -0.94603276, 0.50900805, 0.37816888, -0.33981937, -0.024501082
1565633201784, 8.19391, 7.568262, -2.9530592, -1.0681788, 0.4894447, 0.3888215, -0.2972088, 0.0063915867
1565633201785, 8.396721, 7.7071733, -3.0536501, -1.334026, 0.4648583, 0.386691, -0.25672874, 0.025566347
1565633201792, 8.565636, 7.8532696, -3.056045, -1.5352076, 0.4567265, 0.39521313, -0.22264028, 0.053263225
1565633201793, 8.729919, 8.013736, -3.1063404, -1.5304176, 0.4479662, 0.4016047, -0.18961707, 0.058589544
1565633201802, 8.832663, 8.1071415, -3.1255007, -1.587898, 0.4483599, 0.406931, -0.17044231, 0.07989483
1565633201805, 8.880538, 8.195757, -3.0081446, -1.6262183, 0.47249973, 0.4250405, -0.18748654, 0.08628642
1565633201815, 8.874672, 8.274793, -2.7255323, -1.6908839, 0.4929033, 0.4346279, -0.20879184, 0.10226539
1565633201816, 9.072839, 8.485555, -2.6536818, -1.8082398, 0.5088765, 0.45060685, -0.21518342, 0.098004326
1565633201825, 9.318765, 8.715476, -2.6967921, -1.8992506, 0.5077927, 0.45167214, -0.21624869, 0.084155895
1565633201827, 9.742126, 9.110655, -2.7446926, -2.090852, 0.5278447, 0.47191215, -0.22796659, 0.0628506
1565633201834, 9.910769, 9.259146, -2.7710378, -2.193838, 0.52326065, 0.46871635, -0.23009712, 0.034088463
1565633201835, 10.160597, 9.465117, -2.7351124, -2.4836354, 0.53774756, 0.47830373, -0.24501082, 0.01917476
1565633201844, 10.09827, 9.378897, -2.7351124, -2.555486, 0.539881, 0.4676511, -0.2695119, -0.011717909
1565633201846, 10.115356, 9.261541, -2.7638526, -2.9841945, 0.5415956, 0.45806372, -0.28868666, -0.0127831735
1565633201854, 9.878267, 8.988508, -2.6321266, -3.1398706, 0.5466488, 0.4314321, -0.3355583, -0.00958738
1565633201856, 9.88821, 8.926238, -2.6153615, -3.3554225, 0.5549588, 0.4079963, -0.37603834, -0.010652645
1565633201864, 9.797796, 8.823253, -2.6608667, -3.3266823, 0.56761307, 0.37710363, -0.42397526, -0.014913702
1565633201870, 9.680764, 8.732242, -2.6536818, -3.2284865, 0.59560764, 0.37284255, -0.4644553, -0.004261058
1565633201874, 9.472625, 8.660391, -2.6273365, -2.7973828, 0.6157689, 0.3685815, -0.49321744, 0.007456851
1565633201876, 9.520778, 8.763377, -2.5363257, -2.7231374, 0.6239077, 0.3717773, -0.5006743, 0.01917476
1565633201885, 9.455066, 8.758587, -2.3782544, -2.6512868, 0.5963302, 0.36325517, -0.47191215, 0.03089267
1565633201886, 9.649932, 8.919053, -2.4165747, -2.7806177, 0.5341077, 0.35473305, -0.39734364, 0.039414786
1565633201895, 9.775241, 9.031619, -2.4980054, -2.7830129, 0.44808143, 0.3387541, -0.29188246, 0.02876214
1565633201897, 9.972458, 9.158555, -2.6009912, -2.9674294, 0.35981503, 0.30679616, -0.18748654, 0.013848438
1565633201905, 9.886345, 9.11784, -2.4716604, -2.914739, 0.29978254, 0.2908172, -0.06924219, 0.022370555
1565633201907, 9.906497, 9.16095, -2.3710694, -2.931504, 0.25452912, 0.25033715, 0.034088463, 0.03089267
1565633201915, 9.747319, 8.981323, -2.3447242, -2.9746144, 0.25495455, 0.22264028, 0.11504856, 0.046871636
1565633201916, 9.784056, 9.034014, -2.2345533, -3.0201197, 0.27181783, 0.19600865, 0.17789917, 0.06178534
1565633201924, 9.56728, 8.931028, -2.074087, -2.7327175, 0.28471273, 0.1768339, 0.2034655, 0.09161274
1565633201926, 9.525716, 8.976534, -2.047742, -2.44292, 0.2914428, 0.16724652, 0.2130529, 0.10759171
1565633201935, 9.521661, 9.012459, -2.1722827, -2.1722827, 0.30246946, 0.18535602, 0.19920446, 0.13209279
1565633201936, 9.662181, 9.2328005, -2.078877, -1.947151, 0.29260856, 0.19707392, 0.17044231, 0.13315806
1565633201945, 9.771102, 9.319021, -2.2632935, -1.8729054, 0.30083114, 0.22050974, 0.15446335, 0.13422333
1565633201946, 9.985356, 9.625584, -2.0142114, -1.7315992, 0.32466632, 0.257794, 0.14061491, 0.13848437
1565633201957, 10.143825, 9.793235, -2.078877, -1.6334034, 0.3293511, 0.28549087, 0.11504856, 0.11717909
1565633201959, 10.412374, 10.071057, -2.1195924, -1.5807129, 0.34453687, 0.32597092, 0.07563378, 0.082025364
1565633201965, 10.56085, 10.195599, -2.1171973, -1.7603394, 0.35970464, 0.35473305, 0.02876214, 0.05219796
1565633201966, 10.805157, 10.384805, -2.1483326, -2.071692, 0.34827632, 0.34514567, -0.04580637, 0.008522116
1565633201976, 10.808618, 10.310559, -2.215393, -2.3686745, 0.36156747, 0.34621096, -0.10333065, -0.013848438
1565633201979, 10.9033165, 10.336905, -2.2249732, -2.6608667, 0.3631505, 0.32170987, -0.1587244, -0.056459017
1565633201985, 10.817836, 10.181229, -2.201023, -2.919529, 0.3639496, 0.2876214, -0.21198763, -0.06924219
1565633201986, 10.704423, 10.023157, -2.2489235, -3.0105398, 0.37658268, 0.25033715, -0.26525086, -0.09374327
1565633201995, 10.642943, 9.917776, -2.2441335, -3.1422658, 0.37786418, 0.20772657, -0.29933932, -0.10013486
1565633201997, 10.447077, 9.74294, -2.3830445, -2.9219239, 0.3909898, 0.165116, -0.33768883, -0.10759171
1565633202005, 10.135218, 9.474698, -2.327959, -2.7446926, 0.41370955, 0.15020229, -0.37390783, -0.09374327
1565633202007, 9.913871, 9.333391, -2.299219, -2.4261549, 0.42766488, 0.14274544, -0.3930826, -0.08948222
1565633202015, 9.705148, 9.182506, -2.186653, -2.2561085, 0.41411394, 0.12783173, -0.38775626, -0.06924219
1565633202016, 9.632871, 9.144185, -2.2561085, -2.0213966, 0.3844129, 0.12144015, -0.36112466, -0.051132694
1565633202025, 9.937539, 9.433982, -2.3950195, -2.0046315, 0.34784597, 0.11504856, -0.32490566, -0.046871636
1565633202027, 9.846195, 9.366921, -2.4189699, -1.83219, 0.3143144, 0.099069595, -0.29507825, -0.043675844
1565633202035, 9.895428, 9.462723, -2.4022048, -1.6142433, 0.25358218, 0.10226539, -0.22903186, -0.037284255
1565633202036, 9.914423, 9.517808, -2.4213648, -1.3579761, 0.22162622, 0.11930962, -0.18322548, -0.036218993
1565633202046, 9.968587, 9.575289, -2.5027955, -1.1927198, 0.16648826, 0.12357068, -0.10972224, -0.020240024
1565633202047, 9.726991, 9.352551, -2.4644752, -1.0346485, 0.156311, 0.14807177, -0.05006743, -0.0010652645
1565633202055, 9.670668, 9.319021, -2.3710694, -1.0274634, 0.15088072, 0.14807177, 0.008522116, 0.027696876
1565633202057, 9.826217, 9.453142, -2.4812403, -1.0178833, 0.16722277, 0.15659387, 0.051132694, 0.02876214
1565633202066, 9.823839, 9.460327, -2.43813, -1.0322535, 0.18566494, 0.16831179, 0.06711166, 0.040480047
1565633202068, 9.80295, 9.472302, -2.3327491, -0.9651929, 0.1997307, 0.17789917, 0.0777643, 0.046871636
1565633202075, 9.938159, 9.613608, -2.320774, -0.97956306, 0.19900498, 0.1736381, 0.082025364, 0.05219796
1565633202077, 9.957498, 9.642349, -2.299219, -0.9436377, 0.20800225, 0.19281286, 0.060720075, 0.049002163
1565633202085, 10.052278, 9.77647, -2.179468, -0.847837, 0.21350515, 0.20879184, 0.024501082, 0.037284255
1565633202086, 10.164854, 9.889036, -2.201023, -0.8286768, 0.22277275, 0.22050974, -0.02130529, 0.023435818
1565633202096, 10.313255, 10.044712, -2.1339624, -0.95561284, 0.24278684, 0.22796659, -0.083090626, -0.008522116
1565633202097, 10.413357, 10.114168, -2.2441335, -1.0514137, 0.2821262, 0.23329292, -0.15339808, -0.040480047
1565633202106, 10.454004, 10.126143, -2.308799, -1.1903248, 0.31844282, 0.23009712, -0.21411815, -0.051132694
1565633202107, 10.573516, 10.255474, -2.2680836, -1.2166699, 0.36154392, 0.22583607, -0.26631612, -0.09374327
1565633202116, 10.423595, 10.092612, -2.2608986, -1.2957057, 0.40003058, 0.21731395, -0.31851408, -0.10652645
1565633202119, 10.36159, 10.013577, -2.3447242, -1.2621753, 0.45209527, 0.21092236, -0.37816888, -0.12996227
1565633202127, 10.5000105, 10.121353, -2.555486, -1.1304493, 0.48825267, 0.21837921, -0.4016047, -0.17150758
1565633202128, 10.445506, 10.049502, -2.687212, -0.94603276, 0.5197061, 0.23542345, -0.43249738, -0.16618125
1565633202137, 10.319208, 9.915381, -2.7518775, -0.77359134, 0.54893273, 0.26418558, -0.44315, -0.18748654
1565633202139, 10.21529, 9.793235, -2.8309133, -0.6562354, 0.5589553, 0.29188246, -0.43356264, -0.19813919
1565633202148, 10.085376, 9.678274, -2.7710378, -0.60594, 0.54519063, 0.30679616, -0.40266997, -0.20240025
1565633202150, 10.059868, 9.608819, -2.9003687, -0.6777906, 0.5120388, 0.3121225, -0.3536678, -0.19920446
1565633202165, 9.889446, 9.417217, -2.9338992, -0.71371585, 0.47556272, 0.32597092, -0.2876214, -0.19281286
1565633202166, 9.650994, 9.168135, -2.9003687, -0.8214917, 0.42158908, 0.32810146, -0.2034655, -0.16937704
1565633202169, 9.3945465, 8.928633, -2.8357031, -0.7041358, 0.39460683, 0.3334278, -0.1438107, -0.15446335
1565633202170, 9.257461, 8.782537, -2.8380983, -0.7161109, 0.37177727, 0.34514567, -0.05965481, -0.12463594
1565633202177, 9.219536, 8.739427, -2.8452833, -0.72569096, 0.35919008, 0.34940675, -0.0053263223, -0.083090626
1565633202178, 9.285498, 8.789722, -2.8859987, -0.7951465, 0.37438402, 0.36751625, 0.043675844, -0.056459017
1565633202187, 9.399111, 8.878338, -2.9650342, -0.852627, 0.37241623, 0.36432046, 0.070307456, -0.03195793
1565633202188, 9.49255, 8.969349, -2.9746144, -0.90052736, 0.387566, 0.37603834, 0.09161274, -0.020240024
1565633202198, 9.559406, 9.074729, -2.8500733, -0.9532178, 0.4066437, 0.39095205, 0.111852765, 0.002130529
1565633202201, 9.76234, 9.283096, -2.8668385, -0.9532178, 0.42364457, 0.40586576, 0.12144015, 0.0
1565633202208, 9.930032, 9.472302, -2.7973828, -1.0274634, 0.43644783, 0.41971418, 0.11930962, -0.00958738
1565633202211, 10.100166, 9.604029, -2.924319, -1.1064991, 0.4523826, 0.43675843, 0.11611383, -0.020240024
1565633202217, 10.326391, 9.788445, -2.926714, -1.5016773, 0.44967538, 0.43356264, 0.11717909, -0.022370555
1565633202218, 10.406997, 9.812395, -3.0416749, -1.6645386, 0.43999678, 0.4250405, 0.10546118, -0.04261058
1565633202227, 10.522544, 9.869876, -3.1278956, -1.8776954, 0.44009477, 0.4282363, 0.09054748, -0.04580637
1565633202229, 10.445495, 9.766891, -3.151846, -1.9447559, 0.4255235, 0.41438788, 0.08628642, -0.043675844
1565633202237, 10.433006, 9.735755, -3.166216, -2.0094216, 0.41132036, 0.40266997, 0.070307456, -0.04580637
1565633202239, 10.575432, 9.800421, -3.2428565, -2.2968237, 0.3904234, 0.38562572, 0.043675844, -0.04261058
1565633202247, 10.419018, 9.620794, -3.2859669, -2.2800586, 0.35876015, 0.35579833, 0.03089267, -0.034088463
1565633202249, 10.425535, 9.580078, -3.3242872, -2.4213648, 0.3303127, 0.3291667, 0.015978966, -0.022370555
1565633202257, 10.400121, 9.572893, -3.2859669, -2.3926246, 0.3091984, 0.3089267, 0.0127831735, -0.002130529
1565633202259, 10.349398, 9.505833, -3.3099172, -2.4069948, 0.27518895, 0.27483824, 0.007456851, 0.011717909
1565633202268, 10.286708, 9.503438, -3.2165112, -2.2704787, 0.27871278, 0.27803403, 0.0031957934, 0.01917476
1565633202269, 10.357903, 9.558523, -3.2644117, -2.2944288, 0.25523922, 0.25353295, 0.0063915867, 0.02876214
1565633202278, 10.465427, 9.635164, -3.3266823, -2.3710694, 0.2456353, 0.2428803, 0.015978966, 0.033023197
1565633202279, 10.664329, 9.78605, -3.5110989, -2.3734643, 0.23856454, 0.23435818, 0.034088463, 0.02876214
1565633202288, 10.680951, 9.833951, -3.515889, -2.2393434, 0.23984542, 0.23116238, 0.05539375, 0.03195793
1565633202289, 10.445734, 9.635164, -3.537444, -1.9399658, 0.25705782, 0.24074976, 0.082025364, 0.037284255
1565633202302, 10.436273, 9.690249, -3.410508, -1.839375, 0.28407428, 0.25566345, 0.11504856, 0.04580637
1565633202303, 10.180037, 9.469908, -3.3099172, -1.7315992, 0.32545355, 0.28016454, 0.15233281, 0.06498113
1565633202308, 10.129599, 9.414823, -3.276387, -1.7986598, 0.36902457, 0.30679616, 0.18748654, 0.083090626
1565633202309, 10.091263, 9.357342, -3.302732, -1.8345851, 0.40936798, 0.31957933, 0.23542345, 0.10013486
1565633202318, 10.206955, 9.431587, -3.3290772, -2.0357666, 0.43913454, 0.32170987, 0.27803403, 0.10972224
1565633202319, 10.313768, 9.479487, -3.3506324, -2.299219, 0.45817024, 0.32384038, 0.3057309, 0.10759171
1565633202329, 10.383888, 9.536968, -3.293152, -2.454895, 0.46996638, 0.3153183, 0.3270362, 0.12037488
1565633202331, 10.441886, 9.539363, -3.3362625, -2.6273365, 0.49608168, 0.31851408, 0.36112466, 0.11930962
1565633202339, 10.736876, 9.793235, -3.3602126, -2.8428884, 0.4792092, 0.28975195, 0.36325517, 0.11717909
1565633202340, 10.82991, 9.898616, -3.300337, -2.9003687, 0.4618496, 0.28549087, 0.34834146, 0.10226539
1565633202349, 10.883259, 9.936936, -3.1326857, -3.1446607, 0.43128085, 0.26631612, 0.3291667, 0.082025364
1565633202351, 10.88535, 9.970467, -2.9889846, -3.1853762, 0.40182507, 0.23648871, 0.31851408, 0.06391586
1565633202358, 11.085766, 10.090218, -3.0201197, -3.4584084, 0.38199052, 0.21837921, 0.3110572, 0.03834952
1565633202360, 11.102739, 10.080638, -2.9746144, -3.5781593, 0.34998763, 0.18109496, 0.29933932, 0.00958738
1565633202370, 11.108146, 10.087823, -2.8572583, -3.6691701, 0.32762554, 0.13954964, 0.29614353, -0.0127831735
1565633202371, 11.090201, 9.984837, -2.9219239, -3.8416114, 0.31653234, 0.10226539, 0.29827404, -0.027696876
1565633202380, 11.034826, 9.896221, -2.8859987, -3.9374123, 0.32057735, 0.05219796, 0.30999196, -0.0628506
1565633202381, 10.975287, 9.860296, -2.8596535, -3.8799317, 0.32245857, 0.002130529, 0.3121225, -0.080960095
1565633202390, 10.719905, 9.594449, -2.7710378, -3.896697, 0.33375606, -0.041545313, 0.3153183, -0.101200126
1565633202391, 10.631109, 9.544153, -2.7782228, -3.7697608, 0.34946194, -0.08522116, 0.32277513, -0.10333065
1565633202399, 10.3505535, 9.328602, -2.7159522, -3.5685792, 0.34931254, -0.112918034, 0.30786142, -0.12037488
1565633202401, 10.162581, 9.15137, -2.7782228, -3.4368532, 0.37694412, -0.14807177, 0.32810146, -0.111852765
1565633202411, 10.157674, 9.074729, -2.8716285, -3.547024, 0.39144954, -0.16618125, 0.33449304, -0.11717909
1565633202412, 9.942631, 8.957374, -2.8740237, -3.2189064, 0.4072934, -0.18961707, 0.34301516, -0.1107875
1565633202420, 9.92073, 8.952583, -3.0009596, -3.04407, 0.42295292, -0.2034655, 0.35579833, -0.10439592
1565633202422, 9.903966, 8.981323, -3.1302907, -2.7614577, 0.44391116, -0.19920446, 0.38242993, -0.10546118
1565633202431, 9.722967, 8.8951025, -3.1015503, -2.4069948, 0.46742052, -0.18642128, 0.4165184, -0.101200126
1565633202432, 9.597495, 8.775352, -3.1949563, -2.2129982, 0.48765498, -0.14807177, 0.45593318, -0.08948222
1565633202440, 9.59617, 8.703502, -3.412903, -2.1650977, 0.49582538, -0.113983296, 0.47723848, -0.07137272
1565633202441, 9.475901, 8.583751, -3.4057178, -2.1243825, 0.50832427, -0.07989483, 0.49960902, -0.049002163
1565633202450, 9.267803, 8.368198, -3.3386574, -2.1722827, 0.52148473, -0.066046394, 0.51665324, -0.025566347
1565633202452, 9.079367, 8.116721, -3.290757, -2.3926246, 0.5274598, -0.05539375, 0.52411014, 0.02130529
1565633202460, 9.050914, 8.006551, -3.3051271, -2.6249416, 0.5399378, -0.068176925, 0.53263223, 0.056459017
1565633202462, 9.347301, 8.150251, -3.3697927, -3.0967603, 0.548848, -0.08628642, 0.53476274, 0.08841695
1565633202471, 9.415828, 8.190968, -3.3769777, -3.187771, 0.54475445, -0.10013486, 0.52411014, 0.10972224
1565633202472, 9.4794235, 8.344249, -3.1614258, -3.1997461, 0.53917223, -0.12357068, 0.5113269, 0.11824436
1565633202481, 9.554143, 8.480764, -3.1087356, -3.1135256, 0.5047308, -0.12996227, 0.46978164, 0.13102753
1565633202483, 9.757235, 8.741821, -3.027305, -3.1015503, 0.4648961, -0.13635385, 0.4293016, 0.11504856
1565633202491, 9.873754, 8.880733, -2.955454, -3.1446607, 0.42044896, -0.1470065, 0.37923414, 0.10652645
1565633202492, 9.918893, 8.914263, -2.912344, -3.2308815, 0.36624807, -0.1555286, 0.31957933, 0.08841695
1565633202501, 9.974384, 8.978929, -2.9530592, -3.1853762, 0.31976926, -0.15659387, 0.2695119, 0.07137272
1565633202503, 10.113222, 9.045989, -2.8931837, -3.4751735, 0.2949417, -0.16618125, 0.23542345, 0.0628506
1565633202512, 10.162094, 9.002879, -2.816543, -3.779341, 0.28864145, -0.20985709, 0.1917476, 0.05006743
1565633202514, 10.217462, 9.048384, -2.7566676, -3.8631666, 0.3117951, -0.2545982, 0.17257284, 0.051132694
1565633202521, 10.2875595, 8.974138, -2.8859987, -4.119434, 0.34274048, -0.29614353, 0.165116, 0.05006743
1565633202526, 10.304341, 9.0004835, -2.914739, -4.0835085, 0.37120456, -0.33129725, 0.16298546, 0.03834952
1565633202531, 10.245566, 9.0076685, -3.04886, -3.8128712, 0.41219127, -0.3685815, 0.18002969, 0.040480047
1565633202533, 10.230178, 9.062755, -3.0129347, -3.666775, 0.43874672, -0.39095205, 0.19600865, 0.035153728
1565633202541, 10.146214, 9.053174, -3.2356715, -3.2428565, 0.45744768, -0.40373522, 0.21411815, 0.020240024
1565633202543, 10.033963, 9.081915, -3.1350808, -2.8931837, 0.4700147, -0.39947417, 0.24714136, 0.015978966
1565633202551, 10.105027, 9.204061, -3.2452517, -2.6201515, 0.49130756, -0.3920173, 0.29614353, -0.002130529
1565633202553, 10.008282, 9.163345, -3.276387, -2.3375392, 0.50424945, -0.36218992, 0.350472, -0.015978966
1565633202562, 9.915307, 9.101074, -3.3817677, -2.0118165, 0.5197541, -0.32277513, 0.406931, -0.01917476
1565633202564, 9.769071, 8.931028, -3.4440382, -1.951941, 0.5419569, -0.2876214, 0.45912898, -0.013848438
1565633202571, 9.620538, 8.753797, -3.530259, -1.8609302, 0.56886023, -0.257794, 0.5070659, -0.0053263223
1565633202574, 9.420432, 8.538245, -3.4344583, -2.0118165, 0.5862914, -0.22796659, 0.5400891, -0.008522116
1565633202582, 9.44814, 8.54064, -3.5039136, -2.0118165, 0.59109604, -0.19920446, 0.55606806, 0.022370555
1565633202584, 9.233938, 8.296348, -3.5637891, -1.9327809, 0.59330165, -0.16192019, 0.56885123, 0.046871636
1565633202591, 9.321319, 8.322693, -3.6548, -2.064507, 0.55531454, -0.13102753, 0.5368933, 0.054328486
1565633202593, 9.428879, 8.420889, -3.6404297, -2.1770728, 0.4897402, -0.12144015, 0.46871635, 0.07350325
1565633202601, 9.568812, 8.504715, -3.7074904, -2.3423293, 0.42571414, -0.10226539, 0.40586576, 0.0777643
1565633202604, 9.695797, 8.566985, -3.6979103, -2.6345215, 0.3391659, -0.09374327, 0.31851408, 0.06924219
1565633202613, 9.853757, 8.672366, -3.6068995, -2.9794044, 0.26761258, -0.09054748, 0.24181503, 0.070307456
1565633202615, 9.822235, 8.653206, -3.530259, -3.0225148, 0.19571318, -0.10546118, 0.14594123, 0.07669904
1565633202622, 9.894423, 8.696317, -3.5063088, -3.159031, 0.1649028, -0.12037488, 0.09054748, 0.06711166
1565633202624, 9.942765, 8.720266, -3.4847536, -3.2668068, 0.14150786, -0.12676647, 0.027696876, 0.056459017
1565633202632, 10.010715, 8.794512, -3.4655933, -3.295547, 0.15398139, -0.13954964, -0.023435818, 0.060720075
1565633202635, 9.975808, 8.835227, -3.3051271, -3.2452517, 0.17102057, -0.1470065, -0.060720075, 0.0628506
1565633202645, 9.813603, 8.56459, -3.3673975, -3.408113, 0.19359112, -0.165116, -0.08522116, 0.054328486
1565633202647, 9.9593115, 8.681946, -3.3937428, -3.5063088, 0.2369968, -0.18961707, -0.12357068, 0.070307456
1565633202652, 9.872575, 8.650811, -3.3841627, -3.3434474, 0.25686353, -0.19813919, -0.14807177, 0.06924219
1565633202655, 9.853623, 8.641231, -3.319497, -3.3769777, 0.2690378, -0.21092236, -0.15339808, 0.066046394
1565633202664, 9.826081, 8.54543, -3.396138, -3.4631984, 0.29950607, -0.23222765, -0.16831179, 0.08628642
1565633202667, 9.892335, 8.650811, -3.4895437, -3.293152, 0.32528964, -0.25353295, -0.18748654, 0.07989483
1565633202673, 9.960457, 8.763377, -3.4871485, -3.2021413, 0.3458092, -0.26844665, -0.20240025, 0.080960095
1565633202675, 9.878239, 8.693921, -3.6021094, -3.0033545, 0.34833658, -0.27057716, -0.2034655, 0.082025364
1565633202683, 10.0105715, 8.830438, -3.7122805, -2.907554, 0.34953174, -0.28336033, -0.18748654, 0.082025364
1565633202685, 9.985316, 8.794512, -3.8320315, -2.7710378, 0.3402582, -0.28122982, -0.17257284, 0.083090626
1565633202693, 9.880369, 8.696317, -3.9541774, -2.5219557, 0.33225664, -0.27164245, -0.16618125, 0.094808534
1565633202695, 9.869303, 8.746612, -3.9541774, -2.2944288, 0.3047941, -0.25033715, -0.14061491, 0.10226539
1565633202703, 9.7069845, 8.638836, -3.896697, -2.1004322, 0.30249572, -0.2396845, -0.14168017, 0.11824436
1565633202705, 9.7102585, 8.629255, -3.9901028, -1.9758912, 0.28269675, -0.21198763, -0.13848437, 0.1257012
1565633202713, 9.730255, 8.653206, -4.006868, -1.9351759, 0.26558647, -0.17257284, -0.1438107, 0.14168017
1565633202716, 9.767958, 8.681946, -4.0499783, -1.9064356, 0.25180158, -0.14061491, -0.14061491, 0.15446335
1565633202724, 9.973296, 8.820857, -4.2248144, -1.951941, 0.25536147, -0.10652645, -0.15978967, 0.16831179
1565633202726, 10.026541, 8.851993, -4.239185, -2.0501368, 0.27148366, -0.08735169, -0.18855181, 0.17470337
1565633202733, 10.019487, 8.756192, -4.26074, -2.3590944, 0.29617417, -0.068176925, -0.21518342, 0.1917476
1565633202735, 10.158436, 8.851993, -4.3301954, -2.4668703, 0.31483567, -0.07243799, -0.24714136, 0.18109496
1565633202744, 10.298576, 8.935819, -4.3637257, -2.6776319, 0.37053597, -0.07137272, -0.3089267, 0.1917476
1565633202746, 10.360754, 8.952583, -4.2343946, -3.04407, 0.42844957, -0.080960095, -0.37284255, 0.1949434
1565633202754, 10.498495, 9.043594, -4.1936793, -3.293152, 0.49167353, -0.10865697, -0.43569317, 0.20026971
1565633202776, 10.48369, 8.938213, -4.167334, -3.5566041, 0.5426589, -0.13422333, -0.4825648, 0.20879184
1565633202779, 10.51552, 8.907078, -4.064348, -3.8368216, 0.6131057, -0.17576863, -0.5422196, 0.22583607
1565633202781, 10.399419, 8.842413, -3.8559816, -3.8847218, 0.66664964, -0.20453078, -0.5933523, 0.2247708
1565633202782, 10.45373, 8.837623, -3.9637575, -3.9326222, 0.7131339, -0.23329292, -0.6306366, 0.23755397
1565633202784, 10.5038, 8.950189, -3.9350173, -3.8392165, 0.75423884, -0.26738137, -0.66365975, 0.23861924
1565633202786, 10.265404, 8.777747, -3.8511915, -3.6739602, 0.8035075, -0.28229508, -0.7105314, 0.24714136
1565633202791, 10.204032, 8.756192, -3.786526, -3.6212697, 0.82820386, -0.28975195, -0.73290193, 0.2545982
1565633202797, 10.046814, 8.650811, -3.8464015, -3.3626075, 0.8868395, -0.29933932, -0.78936094, 0.27164245
1565633202799, 9.880473, 8.502319, -3.779341, -3.3242872, 0.9069875, -0.30253512, -0.80747044, 0.28122982
1565633202803, 9.918419, 8.665181, -3.6811452, -3.1207106, 0.8830502, -0.294013, -0.78296936, 0.28336033
1565633202805, 10.2005, 9.072334, -3.6979103, -2.8404932, 0.8476139, -0.28549087, -0.75420725, 0.2609898
1565633202813, 10.190482, 9.275911, -3.5015187, -2.3543043, 0.8059745, -0.25566345, -0.7254451, 0.24074976
1565633202814, 10.318828, 9.503438, -3.4751735, -2.0213966, 0.7589693, -0.21518342, -0.6956177, 0.21411815
1565633202824, 10.134143, 9.388477, -3.3673975, -1.7938697, 0.7367611, -0.15978967, -0.69348717, 0.19068234
1565633202825, 10.011452, 9.3309965, -3.300337, -1.5064673, 0.7093365, -0.11504856, -0.680704, 0.16298546
1565633202834, 9.979218, 9.342972, -3.163821, -1.5112574, 0.6814779, -0.060720075, -0.66579026, 0.13209279
1565633202836, 9.970035, 9.335787, -3.1278956, -1.5687379, 0.6479707, -0.013848438, -0.6380934, 0.111852765
1565633202845, 10.027884, 9.357342, -3.2356715, -1.590293, 0.6181187, 0.018109497, -0.60933125, 0.10226539
1565633202846, 10.078399, 9.371712, -3.290757, -1.707649, 0.5884041, 0.05965481, -0.5816344, 0.066046394
1565633202854, 10.145821, 9.390872, -3.2859669, -1.9878663, 0.55119073, 0.070307456, -0.5454154, 0.037284255
1565633202856, 10.158057, 9.390872, -3.300337, -2.0261867, 0.5166741, 0.083090626, -0.5091964, 0.027696876
1565633202864, 10.04071, 9.11784, -3.4823585, -2.3566992, 0.50446093, 0.083090626, -0.49747851, 0.00958738
1565633202865, 9.804688, 8.847202, -3.4751735, -2.4045997, 0.48045436, 0.0777643, -0.47404268, 0.008522116
1565633202875, 9.553586, 8.54064, -3.4560134, -2.5267458, 0.47297505, 0.07350325, -0.46658584, 0.024501082
1565633202876, 9.454319, 8.377779, -3.5709743, -2.5387208, 0.45382518, 0.056459017, -0.44847634, 0.040480047
1565633202885, 9.264556, 8.190968, -3.5997145, -2.4045997, 0.47186044, 0.07563378, -0.46232477, 0.056459017
1565633202886, 9.085571, 8.092772, -3.427273, -2.304009, 0.51158875, 0.09161274, -0.49641323, 0.083090626
1565633202895, 9.083169, 8.095166, -3.4248781, -2.2896388, 0.5428983, 0.10652645, -0.5230448, 0.099069595
1565633202896, 9.18509, 8.133487, -3.4823585, -2.4668703, 0.5893388, 0.101200126, -0.5699165, 0.1107875
1565633202905, 9.211021, 8.128696, -3.4679885, -2.5962012, 0.6397097, 0.10439592, -0.61891866, 0.12357068
1565633202906, 9.297141, 8.226892, -3.4536183, -2.6129665, 0.6704103, 0.111852765, -0.64768076, 0.13209279
1565633202915, 9.334661, 8.214917, -3.403323, -2.8404932, 0.6982782, 0.096939065, -0.6775082, 0.13848437
1565633202916, 9.38195, 8.281978, -3.3338673, -2.8836036, 0.7114212, 0.08948222, -0.69029135, 0.1470065
1565633202925, 9.56088, 8.380174, -3.396138, -3.1063404, 0.69800264, 0.06711166, -0.6785734, 0.14913702
1565633202926, 9.59773, 8.320298, -3.391348, -3.3745828, 0.67016906, 0.025566347, -0.6498113, 0.16192019
1565633202936, 9.412775, 8.032896, -3.1374757, -3.772156, 0.6395775, -0.0127831735, -0.61572284, 0.17257284
1565633202937, 9.637458, 8.246053, -3.412903, -3.6380348, 0.6121935, -0.060720075, -0.5816344, 0.18109496
1565633202946, 9.995321, 8.566985, -3.5781593, -3.7027004, 0.5838378, -0.099069595, -0.54648066, 0.18002969
1565633202947, 10.0960655, 8.686736, -3.6212697, -3.6548, 0.55649036, -0.128897, -0.5123922, 0.17470337
1565633202956, 10.187652, 8.842413, -3.6500099, -3.5039136, 0.528822, -0.14913702, -0.479369, 0.16618125
1565633202957, 10.294938, 8.919053, -3.7290456, -3.539839, 0.5130827, -0.18109496, -0.45380265, 0.15659387
1565633202968, 10.378359, 9.10347, -3.6979103, -3.3410523, 0.49148995, -0.18961707, -0.4314321, 0.13954964
1565633202969, 10.334876, 9.053174, -3.7146754, -3.3242872, 0.47731695, -0.20453078, -0.4165184, 0.111852765
1565633202977, 10.3210945, 9.086704, -3.7386258, -3.159031, 0.44034097, -0.21092236, -0.37390783, 0.098004326
1565633202978, 10.214733, 9.010064, -3.671565, -3.1111305, 0.42810115, -0.21837921, -0.35579833, 0.094808534
1565633202988, 10.160876, 9.024434, -3.7242556, -2.816543, 0.392392, -0.2034655, -0.3291667, 0.06498113
1565633202989, 10.123367, 8.983719, -3.8200562, -2.680027, 0.36750388, -0.1917476, -0.30999196, 0.046871636
1565633202996, 9.843514, 8.749006, -3.7386258, -2.5243506, 0.3457206, -0.16405073, -0.30146983, 0.041545313
1565633202997, 9.568731, 8.48316, -3.6045046, -2.5698562, 0.3294992, -0.14061491, -0.29507825, 0.041545313
1565633203007, 9.239704, 8.167017, -3.4631984, -2.5842261, 0.31470948, -0.112918034, -0.28868666, 0.054328486
1565633203008, 9.26631, 8.181387, -3.4823585, -2.6081765, 0.30684608, -0.101200126, -0.28229508, 0.06498113
1565633203016, 9.307858, 8.140672, -3.537444, -2.802173, 0.3079296, -0.08628642, -0.28336033, 0.084155895
1565633203018, 9.160919, 8.071217, -3.3650026, -2.7303224, 0.31799886, -0.06178534, -0.29614353, 0.098004326
1565633203028, 9.198837, 8.066426, -3.542234, -2.6464968, 0.34251025, -0.033023197, -0.32277513, 0.10972224
1565633203028, 9.135789, 7.9897857, -3.4584084, -2.7686427, 0.36799297, -0.018109497, -0.3472762, 0.12037488
1565633203038, 9.116046, 7.893985, -3.537444, -2.8764186, 0.39992842, 0.010652645, -0.3717773, 0.1470065
1565633203038, 9.174957, 8.008945, -3.3889527, -2.924319, 0.42226952, 0.027696876, -0.3898868, 0.15978967
1565633203048, 9.293768, 8.126302, -3.3937428, -2.9698243, 0.44777235, 0.049002163, -0.4133226, 0.165116
1565633203049, 9.423658, 8.308323, -3.3650026, -2.907554, 0.47081557, 0.06498113, -0.43569317, 0.16618125
1565633203063, 9.544562, 8.396939, -3.3410523, -3.0704153, 0.49475196, 0.0777643, -0.45380265, 0.18109496
1565633203064, 9.75603, 8.57417, -3.3434474, -3.2380664, 0.50196683, 0.07243799, -0.4612595, 0.18429075
1565633203067, 9.841044, 8.600515, -3.3338673, -3.4296682, 0.49766093, 0.07243799, -0.45699844, 0.18322548
1565633203068, 9.970868, 8.705896, -3.408113, -3.4655933, 0.47781476, 0.06178534, -0.44208476, 0.17044231
1565633203084, 10.136213, 8.875943, -3.3530276, -3.5661843, 0.44747958, 0.05006743, -0.4079963, 0.1768339
1565633203085, 9.751311, 8.528665, -2.794988, -3.8128712, 0.42073902, 0.02876214, -0.37816888, 0.18216023
1565633203087, 10.1857605, 8.911868, -3.2117214, -3.7434156, 0.3860625, 0.025566347, -0.33768883, 0.18535602
1565633203088, 10.455934, 9.125025, -3.4991236, -3.7170706, 0.34777418, 0.002130529, -0.30253512, 0.17150758
1565633203104, 10.637848, 9.311836, -3.6236646, -3.6500099, 0.31450027, -0.007456851, -0.2695119, 0.16192019
1565633203105, 10.4716425, 9.208851, -3.4488282, -3.5997145, 0.28548688, -0.023435818, -0.23755397, 0.15659387
1565633203108, 10.267315, 9.053174, -3.297942, -3.547024, 0.266007, -0.04580637, -0.2034655, 0.165116
1565633203109, 10.402932, 9.22801, -3.271597, -3.515889, 0.21631952, -0.034088463, -0.16618125, 0.13422333
1565633203124, 10.523189, 9.395662, -3.403323, -3.297942, 0.18520902, -0.029827405, -0.11930962, 0.13848437
1565633203125, 10.423789, 9.369317, -3.432063, -3.0153298, 0.15405507, -0.025566347, -0.09267801, 0.12037488
1565633203128, 9.96918, 9.005274, -2.9794044, -3.06802, 0.13802062, -0.0031957934, -0.0777643, 0.113983296
1565633203129, 10.176953, 9.2328005, -3.427273, -2.565066, 0.14592956, 0.022370555, -0.094808534, 0.10865697
1565633203144, 10.181488, 9.211246, -3.5015187, -2.560276, 0.1480411, 0.054328486, -0.112918034, 0.07882957
1565633203145, 10.187863, 9.206455, -3.5901344, -2.4788454, 0.18409052, 0.08735169, -0.14274544, 0.07669904
1565633203148, 9.991069, 9.053174, -3.391348, -2.5219557, 0.22871701, 0.10759171, -0.19281286, 0.05965481
1565633203149, 9.824648, 8.863968, -3.3242872, -2.6273365, 0.28643733, 0.13422333, -0.24714136, 0.054328486
1565633203167, 9.741843, 8.710687, -3.4057178, -2.7255323, 0.33899352, 0.15446335, -0.2972088, 0.05219796
1565633203168, 9.723912, 8.681946, -3.3554225, -2.8141482, 0.3823691, 0.17044231, -0.3387541, 0.049002163
1565633203169, 9.648448, 8.53585, -3.3865578, -2.9602442, 0.42537814, 0.18855181, -0.37710363, 0.056459017
1565633203170, 9.493368, 8.384964, -3.391348, -2.8836036, 0.45646426, 0.19920446, -0.40586576, 0.0628506
1565633203185, 9.47699, 8.267608, -3.4919386, -3.04407, 0.48283985, 0.20985709, -0.4293016, 0.06924219
1565633203186, 9.5245495, 8.363408, -3.432063, -2.9985645, 0.5156155, 0.21944448, -0.4612595, 0.070307456
1565633203189, 9.497057, 8.303533, -3.535049, -2.9578493, 0.54335797, 0.23435818, -0.4825648, 0.08628642
1565633203190, 9.549416, 8.334668, -3.6236646, -2.931504, 0.5749567, 0.2396845, -0.51452273, 0.09161274
1565633203205, 9.496008, 8.320298, -3.5829494, -2.8476784, 0.6051583, 0.25353295, -0.5400891, 0.101200126
1565633203206, 9.554989, 8.387359, -3.5757644, -2.8572583, 0.63429767, 0.27696875, -0.5613944, 0.10226539
1565633203209, 9.523445, 8.3250885, -3.7098854, -2.7614577, 0.6429866, 0.28868666, -0.56245965, 0.11717909
1565633203210, 9.5218725, 8.358619, -3.661985, -2.7183473, 0.6756658, 0.31851408, -0.58269966, 0.12463594
1565633203222, 9.414677, 8.296348, -3.6164796, -2.5938063, 0.6757514, 0.32597092, -0.57311225, 0.14807177
1565633203223, 9.264298, 8.040081, -3.4416432, -3.056045, 0.6820272, 0.33449304, -0.567786, 0.17576863
1565633203228, 9.7685795, 8.473579, -3.6332448, -3.2284865, 0.6349441, 0.3323625, -0.5134575, 0.17044231
1565633203231, 10.268384, 8.801697, -3.9206471, -3.5494192, 0.5811386, 0.32384038, -0.45380265, 0.16405073
1565633203240, 10.278995, 8.813672, -3.6931202, -3.786526, 0.5215783, 0.30360037, -0.3888215, 0.16937704
1565633203241, 10.051526, 8.624466, -3.427273, -3.8607717, 0.46535113, 0.26631612, -0.33981937, 0.1736381
1565633203256, 10.068823, 8.54064, -3.2165112, -4.253555, 0.42152852, 0.24074976, -0.2908172, 0.18748654
1565633203257, 10.181986, 8.566985, -3.2236965, -4.4595265, 0.36524904, 0.18748654, -0.24714136, 0.19281286
1565633203259, 10.228473, 8.464, -3.3721876, -4.648733, 0.3155683, 0.14168017, -0.20772657, 0.19068234
1565633203260, 10.329851, 8.52627, -3.3434474, -4.7780643, 0.28692618, 0.09374327, -0.17044231, 0.21092236
1565633203276, 10.112459, 8.351434, -3.3123121, -4.641548, 0.2687255, 0.049002163, -0.16192019, 0.20879184
1565633203277, 9.911031, 8.186177, -3.271597, -4.528982, 0.29253876, 0.027696876, -0.15233281, 0.24820662
1565633203280, 9.812094, 8.155042, -3.297942, -4.3469605, 0.2843478, 0.011717909, -0.14913702, 0.24181503
1565633203281, 9.790412, 8.167017, -3.3769777, -4.2128396, 0.30125144, -0.004261058, -0.14274544, 0.26525086
1565633203290, 9.705725, 8.135881, -3.319497, -4.1218286, 0.32841605, -0.018109497, -0.1555286, 0.28868666
1565633203291, 9.593163, 8.059241, -3.3769777, -3.9589674, 0.33736607, -0.01917476, -0.15233281, 0.30040458
1565633203300, 9.548473, 8.056846, -3.4608033, -3.779341, 0.34961778, -0.008522116, -0.16937704, 0.3057309
1565633203301, 9.547348, 8.126302, -3.4416432, -3.642825, 0.3678002, 0.0031957934, -0.16618125, 0.32810146
1565633203314, 9.516209, 8.147857, -3.4895437, -3.4631984, 0.37108684, 0.010652645, -0.17896444, 0.32490566
1565633203315, 8.82281, 7.573052, -2.8093581, -3.5494192, 0.40433064, 0.014913702, -0.19920446, 0.35153726
1565633203326, 9.451336, 8.109536, -3.4823585, -3.3817677, 0.42807463, 0.03834952, -0.23329292, 0.3568636
1565633203327, 9.832882, 8.413704, -3.8320315, -3.3482375, 0.44386137, 0.06178534, -0.27483824, 0.34301516
1565633203330, 9.994569, 8.499925, -3.9829175, -3.432063, 0.46454078, 0.0777643, -0.30466563, 0.34194988
1565633203331, 9.662516, 8.145462, -3.642825, -3.7074904, 0.51623684, 0.08841695, -0.350472, 0.3685815
1565633203344, 9.450534, 7.9849954, -3.4464333, -3.6979103, 0.5443293, 0.07882957, -0.37816888, 0.3834952
1565633203345, 9.725347, 8.164622, -3.515889, -3.9445972, 0.5817115, 0.07989483, -0.42717105, 0.386691
1565633203351, 10.111491, 8.490345, -3.6955154, -4.061953, 0.5821658, 0.06924219, -0.43249738, 0.3834952
1565633203352, 10.114299, 8.401729, -3.755391, -4.1960745, 0.6010027, 0.04474111, -0.45699844, 0.38775626
1565633203360, 10.161967, 8.428074, -3.6859353, -4.3182206, 0.607083, 0.020240024, -0.47191215, 0.38136467
1565633203361, 10.171744, 8.464, -3.6500099, -4.3014555, 0.6294523, 0.017044231, -0.4878911, 0.39734364
1565633203377, 9.499518, 7.879615, -3.0009596, -4.375701, 0.65319914, -0.0053263223, -0.5134575, 0.40373522
1565633203378, 10.460471, 8.741821, -3.8320315, -4.2799, 0.6303531, -0.0127831735, -0.50173956, 0.38136467
1565633203381, 10.743319, 8.935819, -4.0499783, -4.378096, 0.6317709, -0.023435818, -0.51026165, 0.3717773
1565633203382, 10.871209, 9.029224, -4.176914, -4.382886, 0.61386317, -0.04261058, -0.49534798, 0.36005938
1565633203391, 10.709083, 8.885523, -3.9805226, -4.4595265, 0.60347587, -0.06711166, -0.4889564, 0.3472762
1565633203392, 10.5187435, 8.705896, -3.7050953, -4.5960426, 0.600591, -0.080960095, -0.49002165, 0.33768883
1565633203407, 10.527148, 8.693921, -3.7625759, -4.591253, 0.5916899, -0.08948222, -0.47830373, 0.33662358
1565633203408, 10.704857, 8.890313, -3.923042, -4.4906616, 0.5809101, -0.12037488, -0.46552056, 0.32597092
1565633203416, 10.657202, 8.741821, -3.894302, -4.6894484, 0.56342417, -0.13209279, -0.4463458, 0.3174488
1565633203418, 10.438671, 8.5502205, -3.8416114, -4.5936475, 0.5760136, -0.1555286, -0.45699844, 0.314253
1565633203422, 10.328584, 8.435259, -3.8152664, -4.5792775, 0.58737046, -0.15978967, -0.4676511, 0.3174488
1565633203423, 10.348969, 8.468789, -3.9469924, -4.4499464, 0.59623414, -0.15659387, -0.47404268, 0.32597092
1565633203431, 10.322819, 8.51669, -3.887117, -4.3493557, 0.6020931, -0.1768339, -0.479369, 0.31851408
1565633203432, 10.274382, 8.461604, -3.911067, -4.3206153, 0.61328614, -0.16937704, -0.5006743, 0.3110572
1565633203441, 10.179607, 8.315508, -3.9445972, -4.3493557, 0.6160913, -0.15339808, -0.5091964, 0.3110572
1565633203442, 10.097045, 8.329878, -3.911067, -4.1553593, 0.6378061, -0.13422333, -0.5422196, 0.30786142
1565633203451, 10.025732, 8.337064, -3.9709425, -3.903882, 0.6606521, -0.11824436, -0.567786, 0.31638354
1565633203453, 10.117658, 8.320298, -4.1170387, -4.023633, 0.6605825, -0.098004326, -0.5784386, 0.30360037
1565633203468, 10.319031, 8.356223, -4.267925, -4.29427, 0.65611815, -0.09054748, -0.5784386, 0.29614353
1565633203469, 10.351253, 8.346643, -4.3014555, -4.3565407, 0.66283846, -0.08948222, -0.5784386, 0.3110572
1565633203472, 9.755037, 7.7430983, -3.911067, -4.4619217, 0.6608427, -0.07989483, -0.5752428, 0.3153183
1565633203473, 10.80588, 8.717872, -4.663103, -4.361331, 0.6050749, -0.058589544, -0.53476274, 0.27696875
1565633203488, 10.980572, 8.782537, -4.86189, -4.4499464, 0.5672591, -0.04261058, -0.49960902, 0.26525086
1565633203489, 10.35323, 8.253238, -4.404441, -4.4355764, 0.53977907, -0.033023197, -0.46019423, 0.28016454
1565633203492, 10.065637, 8.073611, -4.126619, -4.3709106, 0.5152192, -0.022370555, -0.43249738, 0.2790993
1565633203493, 10.209351, 8.162227, -4.380491, -4.2918754, 0.47948852, -0.0010652645, -0.3898868, 0.2790993
1565633203508, 10.380614, 8.274793, -4.430786, -4.4331813, 0.44853577, 0.017044231, -0.3472762, 0.28336033
1565633203509, 10.502818, 8.375383, -4.512217, -4.4499464, 0.40108585, 0.020240024, -0.29827404, 0.26738137
1565633203512, 10.59942, 8.3322735, -4.502637, -4.758904, 0.3711495, 0.014913702, -0.25246766, 0.27164245
1565633203513, 10.616351, 8.222102, -4.6104126, -4.8834453, 0.351739, 0.010652645, -0.21518342, 0.27803403
1565633203526, 10.6904745, 8.303533, -4.5457473, -4.967271, 0.3179328, 0.0053263223, -0.15020229, 0.28016454
1565633203527, 10.584042, 8.2197075, -4.6726832, -4.756509, 0.3081009, 0.0031957934, -0.10759171, 0.28868666
1565633203534, 10.435393, 8.047266, -4.591253, -4.8020144, 0.29689553, 0.0, -0.054328486, 0.29188246
1565633203535, 10.520791, 8.150251, -4.505032, -4.89542, 0.3090993, -0.0053263223, -0.037284255, 0.30679616
1565633203548, 10.468671, 8.147857, -4.591253, -4.703819, 0.30489832, -0.002130529, -0.011717909, 0.30466563
1565633203549, 10.525495, 8.133487, -4.5768824, -4.8666797, 0.31336886, 0.0, -0.010652645, 0.31318775
1565633203554, 10.499627, 8.040081, -4.608018, -4.9361353, 0.31715733, 0.008522116, -0.033023197, 0.3153183
1565633203555, 10.597518, 8.061636, -4.622388, -5.094207, 0.33620697, -0.011717909, -0.07243799, 0.32810146
1565633203568, 10.683026, 8.071217, -4.639153, -5.240303, 0.3561617, -0.040480047, -0.10226539, 0.3387541
1565633203569, 10.641665, 8.0305, -4.528982, -5.3145485, 0.37495795, -0.06178534, -0.14594123, 0.33981937
1565633203574, 10.3058405, 7.7454934, -4.287085, -5.2762284, 0.41769916, -0.08735169, -0.17150758, 0.37071204
1565633203576, 10.778324, 8.128696, -4.5577226, -5.415139, 0.40751344, -0.10013486, -0.16937704, 0.3568636
1565633203588, 11.418852, 8.744217, -5.0654664, -5.3169436, 0.39250478, -0.1107875, -0.17896444, 0.33129725
1565633203589, 10.755541, 8.255632, -4.5864625, -5.1468973, 0.4035553, -0.128897, -0.18535602, 0.33449304
1565633203595, 10.236301, 7.8987746, -4.1864944, -4.9864306, 0.4064874, -0.13422333, -0.18216023, 0.33768883
1565633203597, 10.303389, 8.061636, -4.258345, -4.799619, 0.39897817, -0.12357068, -0.17896444, 0.33449304
1565633203606, 10.496534, 8.310719, -4.430786, -4.634363, 0.36624807, -0.12783173, -0.16405073, 0.30146983
1565633203607, 10.49732, 8.356223, -4.409231, -4.5744877, 0.36308175, -0.111852765, -0.15020229, 0.3110572
1565633203618, 10.290514, 8.181387, -4.2799, -4.543352, 0.3197107, -0.09054748, -0.111852765, 0.28549087
1565633203619, 10.163609, 8.202942, -4.1218286, -4.361331, 0.3056288, -0.0777643, -0.07243799, 0.28655612
1565633203626, 10.233455, 8.238868, -4.1793094, -4.402046, 0.27262866, -0.05965481, -0.020240024, 0.26525086
1565633203627, 10.251705, 8.286768, -4.174519, -4.358936, 0.26328415, -0.049002163, 0.039414786, 0.25566345
1565633203633, 10.212793, 8.157437, -4.1864944, -4.497847, 0.26180592, -0.051132694, 0.094808534, 0.23861924
1565633203637, 10.117402, 8.047266, -4.0811133, -4.5768824, 0.27572864, -0.04261058, 0.14913702, 0.22796659
1565633203646, 10.109169, 8.047266, -4.095484, -4.5457473, 0.30041778, -0.041545313, 0.1949434, 0.2247708
1565633203647, 10.009025, 7.9778104, -4.1242237, -4.4188113, 0.312504, -0.035153728, 0.22690132, 0.21198763
1565633203656, 9.976718, 7.951465, -4.0523734, -4.4595265, 0.33740476, -0.029827405, 0.25992453, 0.2130529
1565633203657, 9.971686, 7.8915896, -4.150569, -4.4643164, 0.33727017, -0.034088463, 0.25566345, 0.21731395
1565633203667, 9.988806, 7.795789, -4.1888895, -4.631968, 0.33698407, -0.043675844, 0.24820662, 0.22370553
1565633203668, 10.103087, 7.8029737, -4.2056546, -4.84752, 0.32276285, -0.06391586, 0.22264028, 0.2247708
1565633203677, 10.244642, 7.9347, -4.3086405, -4.840335, 0.30416238, -0.070307456, 0.1949434, 0.22264028
1565633203678, 10.440564, 8.040081, -4.3637257, -5.031936, 0.28317004, -0.10013486, 0.16298546, 0.20879184
1565633203688, 10.619565, 8.152647, -4.4212065, -5.1732426, 0.26695663, -0.13315806, 0.13848437, 0.18535602
1565633203689, 10.76765, 8.327483, -4.481082, -5.149292, 0.25555027, -0.14913702, 0.1257012, 0.165116
1565633203695, 10.701486, 8.322693, -4.4212065, -5.0702567, 0.25722334, -0.18109496, 0.113983296, 0.14274544
1565633203696, 10.638589, 8.315508, -4.497847, -4.878655, 0.25255978, -0.19707392, 0.10226539, 0.12037488
1565633203709, 10.509078, 8.260423, -4.5553274, -4.631968, 0.25356424, -0.20985709, 0.08522116, 0.113983296
1565633203710, 10.429992, 8.277188, -4.5385623, -4.4355764, 0.23544514, -0.20453078, 0.07350325, 0.09054748
1565633203717, 10.357966, 8.159832, -4.6654983, -4.351751, 0.22751066, -0.20453078, 0.0479369, 0.08735169
1565633203718, 10.264147, 8.147857, -4.754114, -4.045188, 0.20710012, -0.19387813, 0.025566347, 0.068176925
1565633203729, 10.064548, 7.9610453, -4.87626, -3.7601807, 0.17722172, -0.16831179, 0.0031957934, 0.05539375
1565633203731, 9.886423, 7.9059596, -4.782854, -3.515889, 0.1461355, -0.13528858, -0.03089267, 0.04580637
1565633203737, 9.777249, 7.822134, -4.8379397, -3.3171022, 0.11767677, -0.094808534, -0.054328486, 0.043675844
1565633203739, 9.794965, 7.8269243, -4.9361353, -3.2117214, 0.09270861, -0.036218993, -0.0777643, 0.035153728
1565633203748, 9.667227, 7.812554, -4.8666797, -2.955454, 0.10275799, 0.022370555, -0.098004326, 0.02130529
1565633203749, 9.597454, 7.702383, -4.9169755, -2.9338992, 0.12701687, 0.068176925, -0.10652645, 0.011717909
1565633203756, 9.525052, 7.6281376, -4.864285, -2.9794044, 0.17610404, 0.13848437, -0.10865697, 0.0053263223
1565633203757, 9.648734, 7.814949, -4.8259645, -2.955454, 0.21895267, 0.18109496, -0.12250541, -0.011717909
1565633203766, 9.583882, 7.6281376, -4.768484, -3.3051271, 0.24019527, 0.21198763, -0.112918034, -0.002130529
1565633203767, 9.672443, 7.5083866, -4.8020144, -3.7577858, 0.25524145, 0.23861924, -0.09054748, -0.0031957934
1565633203776, 9.837953, 7.4054008, -4.902605, -4.232, 0.24880254, 0.2396845, -0.066046394, -0.00958738
1565633203777, 9.940197, 7.2832546, -4.854705, -4.711004, 0.22555952, 0.22050974, -0.046871636, 0.007456851
1565633203790, 10.022809, 7.117998, -4.8499146, -5.125342, 0.19068532, 0.18748654, -0.015978966, 0.03089267
1565633203791, 10.138997, 6.928792, -4.912185, -5.5372853, 0.16557239, 0.1555286, 0.022370555, 0.05219796
1565633203796, 10.335372, 7.0437527, -4.9409256, -5.726492, 0.13058509, 0.096939065, 0.058589544, 0.06498113
1565633203797, 10.327126, 7.0030375, -4.869075, -5.822293, 0.13458638, 0.043675844, 0.08948222, 0.09054748
1565633203807, 10.44811, 6.952742, -4.90979, -6.0593996, 0.17321934, -0.017044231, 0.13635385, 0.10546118
1565633203808, 10.464882, 7.0269876, -4.9337406, -5.982759, 0.2207155, -0.083090626, 0.16831179, 0.11611383
1565633203815, 10.568471, 7.182664, -4.993616, -5.9300685, 0.27556807, -0.12996227, 0.20985709, 0.12250541
1565633203817, 10.369706, 7.1371584, -4.9313455, -5.6809864, 0.32648054, -0.18322548, 0.23329292, 0.13635385
1565633203826, 10.27433, 7.2329593, -4.912185, -5.3959794, 0.336293, -0.18961707, 0.24074976, 0.13848437
1565633203827, 10.018434, 7.182664, -4.9289503, -4.9481106, 0.33181918, -0.19281286, 0.22583607, 0.14807177
1565633203836, 9.795233, 7.1275783, -4.9696655, -4.521797, 0.32638493, -0.1949434, 0.21731395, 0.14594123
1565633203839, 9.689993, 7.2257743, -4.8571, -4.253555, 0.29916486, -0.18322548, 0.18855181, 0.14274544
1565633203846, 9.562841, 7.206614, -4.878655, -3.9637575, 0.26501974, -0.16405073, 0.16085494, 0.13209279
1565633203847, 9.549871, 7.3072047, -4.82357, -3.8128712, 0.23663741, -0.12783173, 0.14807177, 0.13315806
1565633203857, 9.533045, 7.3742657, -4.799619, -3.6691701, 0.21277042, -0.101200126, 0.14594123, 0.11717909
1565633203857, 9.5126095, 7.422166, -4.7876444, -3.532654, 0.19083998, -0.06178534, 0.15233281, 0.096939065
1565633203868, 9.415375, 7.422166, -4.615203, -3.5015187, 0.19164696, -0.036218993, 0.16937704, 0.082025364
1565633203869, 9.504114, 7.4820414, -4.7014236, -3.4991236, 0.19315687, -0.0010652645, 0.18535602, 0.054328486
1565633203880, 9.58638, 7.479646, -4.718189, -3.7003052, 0.20637281, 0.018109497, 0.20133498, 0.041545313
1565633203881, 9.584474, 7.414981, -4.5864625, -3.9805226, 0.22676125, 0.023435818, 0.22370553, 0.02876214
1565633203889, 9.588143, 7.1778736, -4.6607084, -4.3230104, 0.24791613, 0.018109497, 0.24714136, 0.007456851
1565633203890, 9.476475, 6.991062, -4.605623, -4.4403663, 0.26049364, 0.015978966, 0.25992453, -0.0063915867
1565633203903, 9.46443, 6.9144216, -4.600833, -4.5385623, 0.27845207, 0.013848438, 0.27803403, -0.0063915867
1565633203904, 9.3589, 6.725215, -4.5625124, -4.641548, 0.27322736, 0.013848438, 0.2727077, -0.00958738
1565633203906, 9.370729, 6.6557593, -4.6607084, -4.6678934, 0.2663779, 0.0053263223, 0.26631612, -0.002130529
1565633203907, 9.444347, 6.586304, -4.639153, -4.9289503, 0.25994635, 0.0010652645, 0.25992453, -0.0031957934
1565633203917, 9.376829, 6.5000834, -4.6942387, -4.86189, 0.23352872, -0.00958738, 0.23329292, -0.004261058
1565633203918, 9.361667, 6.5000834, -4.646338, -4.878655, 0.22505334, -0.024501082, 0.22370553, 0.002130529
1565633203927, 9.328371, 6.4282327, -4.6966333, -4.86189, 0.20320041, -0.033023197, 0.20026971, -0.00958738
1565633203928, 9.220107, 6.1887307, -4.7469287, -4.9169755, 0.17727295, -0.034088463, 0.1736381, -0.010652645
1565633203937, 9.165933, 6.1887307, -4.7157936, -4.8451247, 0.15248917, -0.024501082, 0.15020229, 0.00958738
1565633203938, 9.262409, 6.255791, -4.766089, -4.893025, 0.14113045, -0.04261058, 0.13209279, 0.025566347
1565633203947, 9.394172, 6.4210477, -4.864285, -4.8331494, 0.11732426, -0.04261058, 0.10546118, 0.02876214
1565633203948, 9.360574, 6.365962, -4.902605, -4.8020144, 0.106595665, -0.039414786, 0.09374327, 0.03195793
1565633203960, 9.423415, 6.5360084, -4.9624805, -4.631968, 0.08897988, -0.027696876, 0.07989483, 0.027696876
1565633203961, 9.545101, 6.68929, -4.984036, -4.639153, 0.090572536, -0.020240024, 0.083090626, 0.029827405
1565633203967, 9.639415, 6.7946706, -5.0989966, -4.5553274, 0.078642204, -0.008522116, 0.07350325, 0.026631612
1565633203968, 9.841328, 6.9048414, -5.1900077, -4.7157936, 0.08165097, -0.0053263223, 0.07989483, 0.015978966
1565633203977, 10.076392, 7.077283, -5.3959794, -4.7253737, 0.086823955, -0.0010652645, 0.08628642, 0.00958738
1565633203978, 10.18131, 7.182664, -5.4199295, -4.7636943, 0.09815474, 0.0010652645, 0.098004326, 0.0053263223
1565633203990, 10.269281, 7.316785, -5.5157304, -4.636758, 0.1322688, 0.023435818, 0.12996227, -0.007456851
1565633203991, 10.213698, 7.3096, -5.5660257, -4.4619217, 0.14214396, 0.049002163, 0.13315806, -0.008522116
1565633204000, 10.085757, 7.165899, -5.630691, -4.3206153, 0.16192721, 0.080960095, 0.13954964, -0.013848438
1565633204001, 9.962866, 7.0581226, -5.654641, -4.1793094, 0.19198714, 0.12357068, 0.14487597, -0.024501082
1565633204007, 9.963998, 7.067703, -5.6570363, -4.1625443, 0.22428814, 0.16724652, 0.14913702, -0.00958738
1565633204008, 9.97429, 7.110813, -5.613926, -4.1721244, 0.25201103, 0.21092236, 0.13741912, -0.011717909
1565633204018, 9.890398, 6.976692, -5.5780005, -4.24637, 0.29874924, 0.25566345, 0.15446335, -0.0053263223
1565633204019, 9.841543, 6.991062, -5.4103494, -4.3254056, 0.32377383, 0.28442562, 0.15446335, -0.008522116
1565633204030, 9.988684, 7.0006423, -5.391189, -4.6583133, 0.34691167, 0.3089267, 0.15765914, -0.007456851
1565633204031, 10.045115, 6.912027, -5.3073635, -4.996011, 0.35582384, 0.31957933, 0.1555286, -0.017044231
1565633204038, 10.228873, 6.952742, -5.1828227, -5.4247193, 0.35017723, 0.32277513, 0.13528858, -0.011717909
1565633204039, 10.418184, 7.0174074, -5.137317, -5.736072, 0.33493716, 0.314253, 0.11504856, -0.013848438
1565633204051, 10.496839, 6.9311867, -5.096602, -6.013894, 0.31768107, 0.30360037, 0.09054748, -0.023435818
1565633204052, 10.699749, 6.8880763, -5.101392, -6.4042826, 0.28134477, 0.27057716, 0.07563378, -0.014913702
1565633204060, 10.811499, 6.964717, -5.012776, -6.576724, 0.23666619, 0.22796659, 0.054328486, -0.033023197
1565633204062, 10.9311285, 6.9311867, -5.024751, -6.7970657, 0.20066878, 0.19600865, 0.03195793, -0.02876214
1565633204071, 10.933172, 6.828201, -5.0199614, -6.9072366, 0.16479267, 0.16085494, 0.013848438, -0.033023197
1565633204072, 10.969597, 6.8856816, -4.974456, -6.940767, 0.1209861, 0.11824436, 0.007456851, -0.024501082
1565633204079, 10.880243, 6.7970657, -4.926555, -6.9216065, 0.07407227, 0.06924219, -0.00958738, -0.024501082
1565633204080, 10.909487, 6.6988697, -4.9457154, -7.048543, 0.02569916, 0.014913702, -0.0053263223, -0.020240024
1565633204089, 10.852904, 6.7300053, -4.8666797, -6.9862723, 0.036932584, -0.034088463, -0.0031957934, -0.013848438
1565633204090, 10.746259, 6.7635355, -4.9145803, -6.75156, 0.06835977, -0.066046394, 0.015978966, -0.007456851
1565633204099, 10.625696, 6.701265, -4.87147, -6.6533647, 0.101306595, -0.098004326, 0.025566347, -0.002130529
1565633204100, 10.439787, 6.7491655, -4.9720607, -6.222261, 0.14173223, -0.12996227, 0.056459017, -0.0031957934
1565633204109, 10.349175, 6.8737063, -4.902605, -5.985154, 0.16797772, -0.1470065, 0.07989483, 0.014913702
1565633204110, 10.180235, 6.840176, -4.9792457, -5.6618266, 0.18886751, -0.16085494, 0.098004326, 0.013848438
1565633204120, 10.092161, 6.861731, -5.039121, -5.4199295, 0.20302722, -0.16618125, 0.11504856, 0.01917476
1565633204121, 9.991377, 6.828201, -5.1636624, -5.151687, 0.21423472, -0.16618125, 0.13315806, 0.023435818
1565633204132, 9.912595, 6.854546, -5.257068, -4.86189, 0.22393115, -0.15765914, 0.15659387, 0.027696876
1565633204133, 9.838054, 6.9048414, -5.2355127, -4.6583133, 0.24023308, -0.15659387, 0.17896444, 0.034088463
1565633204142, 9.851987, 6.9383717, -5.336104, -4.521797, 0.22995405, -0.12996227, 0.18642128, 0.035153728
1565633204143, 9.7299, 6.9024467, -5.3097587, -4.3397756, 0.24064134, -0.11717909, 0.20559604, 0.043675844
1565633204152, 9.632651, 6.8689165, -5.369634, -4.095484, 0.2310077, -0.0777643, 0.21411815, 0.03834952
1565633204154, 9.631988, 6.9311867, -5.3552637, -4.006868, 0.20690553, -0.04261058, 0.19920446, 0.036218993
1565633204163, 9.554501, 6.7707205, -5.352869, -4.0978785, 0.18599164, -0.01917476, 0.17896444, 0.046871636
1565633204164, 9.687493, 6.7635355, -5.388794, -4.366121, 0.15649602, 0.002130529, 0.14594123, 0.056459017
1565633204172, 9.696476, 6.715635, -5.362449, -4.4906616, 0.110114545, 0.014913702, 0.098004326, 0.0479369
1565633204173, 9.68761, 6.576724, -5.367239, -4.6678934, 0.08243248, 0.029827405, 0.053263225, 0.05539375
1565633204179, 9.753282, 6.69408, -5.242698, -4.7780643, 0.07634313, 0.029827405, 0.017044231, 0.068176925
1565633204181, 9.744809, 6.5264287, -5.132527, -5.101392, 0.0853675, 0.027696876, -0.011717909, 0.07989483
1565633204190, 9.942858, 6.559959, -5.1732426, -5.391189, 0.094904244, 0.004261058, -0.041545313, 0.08522116
1565633204191, 10.151541, 6.593489, -5.230723, -5.6761966, 0.120586805, -0.02876214, -0.060720075, 0.10013486
1565633204200, 10.103498, 6.430628, -5.0558863, -5.9300685, 0.14309876, -0.05965481, -0.056459017, 0.11717909
1565633204201, 10.30431, 6.6461797, -5.0918117, -6.006709, 0.18230967, -0.10759171, -0.05539375, 0.13635385
1565633204210, 10.266633, 6.6653395, -5.0439115, -5.961204, 0.21055889, -0.14061491, -0.054328486, 0.1470065
1565633204214, 10.12231, 6.574329, -4.9864306, -5.863008, 0.22586119, -0.15765914, -0.0479369, 0.15446335
1565633204220, 10.159758, 6.7491655, -5.0367265, -5.6833816, 0.2621633, -0.18535602, -0.05219796, 0.17789917
1565633204222, 10.04544, 6.8497562, -4.9457154, -5.4342995, 0.26103544, -0.18216023, -0.060720075, 0.1768339
1565633204230, 9.991585, 6.962322, -4.9241605, -5.206773, 0.28172368, -0.1949434, -0.07882957, 0.18748654
1565633204231, 9.844625, 6.969507, -4.8355446, -4.996011, 0.27852133, -0.18535602, -0.08522116, 0.18961707
1565633204244, 9.810424, 7.0126176, -4.8283596, -4.873865, 0.2789, -0.1736381, -0.10226539, 0.19281286
1565633204245, 9.692712, 7.074888, -4.720584, -4.648733, 0.27018476, -0.15765914, -0.113983296, 0.18748654
1565633204254, 9.809085, 7.2832546, -4.785249, -4.502637, 0.25356203, -0.13422333, -0.11611383, 0.18109496
1565633204255, 9.764169, 7.2928348, -4.761299, -4.414021, 0.23596269, -0.10333065, -0.11717909, 0.1768339
1565633204265, 9.758521, 7.407796, -4.5936475, -4.387676, 0.21670212, -0.070307456, -0.10546118, 0.17576863
1565633204266, 9.72173, 7.3694754, -4.6271777, -4.3349857, 0.20765007, -0.046871636, -0.10013486, 0.17576863
1565633204274, 9.917464, 7.565867, -4.6846585, -4.378096, 0.19098262, -0.026631612, -0.10759171, 0.1555286
1565633204275, 9.849449, 7.561077, -4.5720925, -4.351751, 0.18116386, 0.0031957934, -0.098004326, 0.15233281
1565633204285, 9.973477, 7.6017923, -4.6822634, -4.4451566, 0.17361197, 0.01917476, -0.096939065, 0.14274544
1565633204286, 9.890396, 7.5131764, -4.526587, -4.5696974, 0.1605619, 0.037284255, -0.09267801, 0.1257012
1565633204291, 9.987519, 7.4676714, -4.653523, -4.7253737, 0.16536665, 0.05219796, -0.08948222, 0.128897
1565633204292, 10.01744, 7.5035963, -4.5960426, -4.7876444, 0.17275357, 0.054328486, -0.09267801, 0.13528858
1565633204301, 10.031273, 7.4580913, -4.624783, -4.8594947, 0.19010122, 0.06498113, -0.12144015, 0.13102753
1565633204302, 10.166921, 7.470066, -4.6199927, -5.120552, 0.19023548, 0.054328486, -0.12676647, 0.13102753
1565633204314, 10.318614, 7.4580913, -4.773274, -5.2977834, 0.22128034, 0.049002163, -0.16724652, 0.13635385
1565633204315, 10.481454, 7.431746, -4.7397437, -5.6714063, 0.24169064, 0.014913702, -0.19600865, 0.14061491
1565633204325, 10.702954, 7.5083866, -4.761299, -5.958809, 0.26506683, -0.0031957934, -0.21837921, 0.15020229
1565633204326, 10.7916565, 7.5874224, -4.6966333, -6.0689797, 0.28271484, -0.046871636, -0.23755397, 0.14594123
1565633204335, 10.976065, 7.6449027, -4.756509, -6.2773466, 0.29338512, -0.08628642, -0.23542345, 0.15233281
1565633204336, 11.1650715, 7.776629, -4.8355446, -6.3875175, 0.31034866, -0.13848437, -0.24074976, 0.13848437
1565633204342, 11.149786, 7.7862086, -4.758904, -6.4066777, 0.32115737, -0.17789917, -0.22264028, 0.14807177
1565633204344, 11.125259, 7.8412943, -4.7133985, -6.330037, 0.33771068, -0.2247708, -0.20772657, 0.14274544
1565633204352, 11.089139, 7.90117, -4.799619, -6.1240654, 0.34087464, -0.25246766, -0.18322548, 0.13741912
1565633204354, 10.88258, 7.91075, -4.6822634, -5.824688, 0.3535009, -0.2790993, -0.17044231, 0.13422333
1565633204362, 10.876068, 8.085587, -4.7086086, -5.5444703, 0.3507811, -0.28975195, -0.15765914, 0.11930962
1565633204366, 10.557945, 7.92512, -4.634363, -5.213958, 0.3409129, -0.28655612, -0.14274544, 0.11717909
1565633204372, 10.43981, 7.92991, -4.670288, -4.9289503, 0.33708343, -0.28122982, -0.14594123, 0.11504856
1565633204375, 10.362127, 7.9969707, -4.653523, -4.6654983, 0.33126983, -0.27696875, -0.14487597, 0.10972224
1565633204382, 10.387385, 8.066426, -4.6942387, -4.5601172, 0.33142224, -0.28016454, -0.15339808, 0.08841695
1565633204384, 10.33827, 8.054451, -4.687053, -4.4762917, 0.31648394, -0.25992453, -0.16192019, 0.07989483
1565633204396, 10.238384, 8.073611, -4.5864625, -4.3134303, 0.30700877, -0.25246766, -0.16298546, 0.0628506
1565633204397, 10.260134, 8.162227, -4.5936475, -4.1888895, 0.29653028, -0.23542345, -0.17257284, 0.05219796
1565633204406, 10.231452, 8.157437, -4.687053, -4.021238, 0.28616977, -0.22370553, -0.17576863, 0.03089267
1565633204407, 10.117981, 8.169412, -4.493057, -3.9302273, 0.27061284, -0.20879184, -0.17150758, 0.014913702
1565633204416, 10.0522785, 8.143066, -4.502637, -3.803291, 0.23841704, -0.17789917, -0.1587244, -0.0010652645
1565633204417, 10.015799, 8.159832, -4.4427614, -3.7410207, 0.21246086, -0.14807177, -0.15020229, -0.025566347
1565633204426, 10.060584, 8.2125225, -4.4906616, -3.6883302, 0.19504525, -0.13209279, -0.13635385, -0.04474111
1565633204427, 9.974131, 8.092772, -4.4595265, -3.755391, 0.17536142, -0.10972224, -0.128897, -0.04580637
1565633204436, 9.890174, 7.9394903, -4.414021, -3.911067, 0.16979527, -0.096939065, -0.12037488, -0.070307456
1565633204437, 10.017125, 7.932305, -4.6654983, -3.9565725, 0.15781021, -0.08628642, -0.10759171, -0.07669904
1565633204445, 10.016674, 7.937095, -4.6846585, -3.923042, 0.15270483, -0.07243799, -0.111852765, -0.07456851
1565633204446, 9.86338, 7.774234, -4.6199927, -3.9374123, 0.16468933, -0.080960095, -0.112918034, -0.08841695
1565633204456, 9.875043, 7.6520877, -4.7229786, -4.0811133, 0.16662112, -0.07882957, -0.11717909, -0.08841695
1565633204457, 9.851365, 7.553892, -4.8283596, -4.0835085, 0.19033685, -0.0777643, -0.14487597, -0.0958738
1565633204465, 9.894702, 7.6017923, -4.8091993, -4.1218286, 0.20520101, -0.080960095, -0.16298546, -0.094808534
1565633204466, 9.883857, 7.486831, -4.869075, -4.2343946, 0.21968481, -0.09374327, -0.17896444, -0.08628642
1565633204476, 10.062873, 7.527547, -5.000801, -4.4259963, 0.22988248, -0.11717909, -0.18642128, -0.066046394
1565633204477, 10.030698, 7.3958206, -4.9481106, -4.629573, 0.25440425, -0.15339808, -0.1949434, -0.056459017
1565633204486, 10.076769, 7.479646, -4.9313455, -4.6128078, 0.26530004, -0.17896444, -0.18961707, -0.049002163
1565633204489, 10.133437, 7.5299416, -5.0343313, -4.543352, 0.27004823, -0.19813919, -0.17896444, -0.040480047
1565633204495, 10.046358, 7.5706573, -4.9696655, -4.3493557, 0.2806057, -0.22264028, -0.165116, -0.043675844
1565633204497, 9.94108, 7.673643, -4.9529004, -3.9254372, 0.26194462, -0.20879184, -0.15446335, -0.034088463
1565633204504, 9.956862, 7.7790236, -5.012776, -3.6739602, 0.2394287, -0.19813919, -0.12783173, -0.041545313
1565633204506, 10.01842, 7.9083548, -5.046306, -3.515889, 0.21704486, -0.18535602, -0.10013486, -0.05219796
1565633204514, 9.965955, 8.020921, -4.8906302, -3.3266823, 0.18712607, -0.15446335, -0.07882957, -0.070307456
1565633204516, 10.0403, 8.121511, -5.007986, -3.1255007, 0.154206, -0.12250541, -0.05219796, -0.0777643
1565633204524, 9.972417, 8.097562, -4.9433208, -3.0728102, 0.13265002, -0.08948222, -0.037284255, -0.09054748
1565633204526, 9.875621, 7.903565, -5.0846267, -3.0344899, 0.12226434, -0.06178534, -0.029827405, -0.101200126
1565633204534, 9.914737, 7.9849954, -5.087022, -2.943479, 0.11918591, -0.03089267, -0.022370555, -0.112918034
1565633204535, 9.928505, 7.951465, -5.087022, -3.0776002, 0.1260573, 0.0053263223, -0.018109497, -0.12463594
1565633204544, 9.824925, 7.92512, -5.012776, -2.931504, 0.13881586, 0.035153728, -0.004261058, -0.13422333
1565633204545, 9.695587, 7.709568, -5.0415163, -3.0249097, 0.14452305, 0.070307456, -0.020240024, -0.12463594
1565633204554, 9.703412, 7.6664577, -5.012776, -3.2021413, 0.1589316, 0.09267801, -0.024501082, -0.12676647
1565633204560, 9.726874, 7.6520877, -5.0415163, -3.2620168, 0.17483324, 0.12357068, -0.023435818, -0.12144015
1565633204565, 9.699909, 7.470066, -5.096602, -3.5087037, 0.18377896, 0.13315806, -0.039414786, -0.12037488
1565633204567, 9.870755, 7.556287, -5.1684523, -3.6907253, 0.19190733, 0.1555286, -0.024501082, -0.10972224
1565633204577, 9.864419, 7.558682, -5.0846267, -3.784131, 0.18639997, 0.15233281, -0.013848438, -0.10652645
1565633204578, 9.838048, 7.479646, -5.0487013, -3.9182522, 0.17463191, 0.1438107, 0.0, -0.099069595
1565633204587, 9.974226, 7.5155716, -5.0630717, -4.167334, 0.18172674, 0.14594123, 0.02876214, -0.10439592
1565633204589, 10.048878, 7.6281376, -5.010381, -4.2056546, 0.17203608, 0.12676647, 0.05539375, -0.10226539
1565633204597, 10.200289, 7.726333, -5.1061816, -4.2751102, 0.18413366, 0.12037488, 0.083090626, -0.111852765
1565633204599, 10.195195, 7.6185575, -5.108577, -4.4499464, 0.16756174, 0.10439592, 0.09267801, -0.09267801
1565633204607, 10.0994215, 7.462881, -5.1061816, -4.497847, 0.16754141, 0.10226539, 0.098004326, -0.08948222
1565633204609, 10.100605, 7.446116, -5.079837, -4.5577226, 0.15412503, 0.07456851, 0.098004326, -0.09267801
1565633204618, 10.128394, 7.429351, -5.142107, -4.5768824, 0.13343048, 0.054328486, 0.098004326, -0.07243799
1565633204619, 10.036908, 7.4748564, -5.012776, -4.4427614, 0.13097122, 0.05752428, 0.10013486, -0.06178534
1565633204627, 10.020914, 7.4748564, -5.010381, -4.409231, 0.12114544, 0.05219796, 0.09161274, -0.05965481
1565633204629, 10.062256, 7.6113725, -4.9792457, -4.30385, 0.12039373, 0.066046394, 0.0777643, -0.06391586
1565633204638, 10.037397, 7.673643, -5.024751, -4.0763235, 0.14038068, 0.06924219, 0.0958738, -0.07563378
1565633204640, 10.055482, 7.726333, -4.912185, -4.157754, 0.15469827, 0.080960095, 0.09267801, -0.09374327
1565633204647, 10.005046, 7.726333, -4.9481106, -3.9901028, 0.15145499, 0.083090626, 0.08628642, -0.09267801
1565633204649, 10.009438, 7.7215433, -4.90979, -4.0571632, 0.16903166, 0.084155895, 0.08948222, -0.11611383
1565633204658, 10.119367, 7.824529, -4.912185, -4.129014, 0.16553469, 0.08841695, 0.07137272, -0.12037488
1565633204661, 10.210075, 7.8508744, -4.893025, -4.3206153, 0.16549012, 0.09161274, 0.06711166, -0.12037488
1565633204668, 10.176256, 7.798184, -4.9361353, -4.287085, 0.17621998, 0.0958738, 0.05965481, -0.13528858
1565633204669, 10.105785, 7.7502837, -4.9409256, -4.2008643, 0.19520226, 0.09374327, 0.06924219, -0.15659387
1565633204678, 10.068102, 7.7478886, -4.912185, -4.148174, 0.20897655, 0.1107875, 0.05539375, -0.16831179
1565633204680, 10.040435, 7.6401124, -4.991221, -4.1864944, 0.20810044, 0.11930962, 0.05006743, -0.16298546
1565633204687, 9.921372, 7.5251517, -4.9696655, -4.136199, 0.22298914, 0.14168017, 0.024501082, -0.17044231
1565633204691, 9.768118, 7.4054008, -4.9576907, -3.999683, 0.23930307, 0.15339808, 0.0127831735, -0.18322548
1565633204696, 9.708649, 7.32876, -4.9624805, -3.9901028, 0.25186467, 0.17896444, -0.011717909, -0.1768339
1565633204698, 9.646249, 7.189849, -5.031936, -4.0044727, 0.26187527, 0.19600865, -0.03834952, -0.16937704
1565633204707, 9.501097, 7.0198026, -4.9313455, -4.0835085, 0.27504048, 0.21624869, -0.066046394, -0.15659387
1565633204711, 9.480801, 7.0221977, -4.9361353, -4.026028, 0.28951687, 0.23648871, -0.083090626, -0.14487597
1565633204717, 9.612378, 6.957532, -5.0031962, -4.3541455, 0.2909908, 0.23861924, -0.10546118, -0.128897
1565633204719, 9.571551, 6.835386, -4.976851, -4.485872, 0.30446815, 0.2514024, -0.12250541, -0.12037488
1565633204729, 9.572095, 6.7850904, -4.9792457, -4.5601172, 0.2871752, 0.23435818, -0.13315806, -0.099069595
1565633204730, 9.652257, 6.7898808, -4.9505057, -4.749324, 0.28188074, 0.23329292, -0.13528858, -0.082025364
1565633204739, 9.791207, 6.837781, -4.991221, -4.91937, 0.27522194, 0.23116238, -0.13954964, -0.053263225
1565633204740, 9.853731, 6.840176, -5.0606766, -4.9696655, 0.25297284, 0.21624869, -0.12676647, -0.034088463
1565633204752, 9.82238, 6.828201, -4.9361353, -5.0487013, 0.22310871, 0.1917476, -0.113983296, -0.004261058
1565633204754, 9.954338, 6.9072366, -4.988826, -5.1468973, 0.18734425, 0.16405073, -0.08841695, 0.01917476
1565633204757, 9.936966, 6.9072366, -4.926555, -5.1732426, 0.17458317, 0.14807177, -0.0777643, 0.05006743
1565633204759, 10.018553, 7.0102224, -4.8571, -5.257068, 0.15324265, 0.12037488, -0.058589544, 0.07456851
1565633204769, 10.087252, 7.189849, -4.854705, -5.1468973, 0.14763042, 0.10333065, -0.05219796, 0.09161274
1565633204771, 10.177404, 7.30481, -4.8355446, -5.1804276, 0.13997185, 0.082025364, -0.053263225, 0.10013486
1565633204778, 10.180261, 7.3527102, -4.840335, -5.113367, 0.1262462, 0.068176925, -0.04580637, 0.0958738
1565633204780, 10.204439, 7.5323367, -4.754114, -4.9792457, 0.13122225, 0.06178534, -0.05219796, 0.10333065
1565633204790, 10.15426, 7.6161623, -4.6654983, -4.8307548, 0.13198106, 0.05752428, -0.058589544, 0.10333065
1565633204792, 10.241725, 7.7574687, -4.653523, -4.8020144, 0.13769959, 0.05752428, -0.0777643, 0.098004326
1565633204797, 10.171447, 7.805369, -4.5936475, -4.629573, 0.1469679, 0.06498113, -0.09267801, 0.09374327
1565633204799, 10.245564, 7.8820095, -4.598438, -4.6583133, 0.15068504, 0.07456851, -0.101200126, 0.083090626
1565633204808, 10.222212, 7.94907, -4.5409575, -4.5481424, 0.15264909, 0.06711166, -0.112918034, 0.0777643
1565633204810, 10.286977, 8.008945, -4.533772, -4.5960426, 0.15491816, 0.06178534, -0.12463594, 0.068176925
1565633204819, 10.357773, 8.090376, -4.4691067, -4.6750784, 0.13700974, 0.06924219, -0.10759171, 0.049002163
1565633204821, 10.436704, 8.159832, -4.543352, -4.6583133, 0.13047642, 0.0628506, -0.10652645, 0.041545313
1565633204830, 10.445733, 8.200547, -4.495452, -4.653523, 0.12096264, 0.056459017, -0.10333065, 0.027696876
1565633204834, 10.415697, 8.186177, -4.4667115, -4.639153, 0.09761566, 0.05965481, -0.07456851, 0.020240024
1565633204839, 10.395097, 8.188572, -4.414021, -4.639153, 0.08279648, 0.053263225, -0.05752428, 0.026631612
1565633204841, 10.340605, 8.071217, -4.471502, -4.6678934, 0.07022671, 0.05219796, -0.039414786, 0.025566347
1565633204847, 10.305085, 7.9897857, -4.4499464, -4.749324, 0.050338674, 0.03834952, -0.025566347, 0.020240024
1565633204849, 10.315285, 8.013736, -4.5481424, -4.636758, 0.043999422, 0.03089267, -0.018109497, 0.025566347
1565633204858, 10.296589, 7.9706254, -4.505032, -4.711004, 0.028063199, 0.01917476, -0.0031957934, 0.020240024
1565633204859, 10.355857, 7.9538603, -4.505032, -4.8666797, 0.03341604, -0.010652645, 0.010652645, 0.029827405
1565633204868, 10.366674, 7.92991, -4.5792775, -4.8594947, 0.04681107, -0.020240024, 0.03089267, 0.02876214
1565633204869, 10.4375925, 7.9945755, -4.617598, -4.869075, 0.05901411, -0.039414786, 0.034088463, 0.027696876
1565633204877, 10.522814, 8.013736, -4.7157936, -4.926555, 0.08257689, -0.06178534, 0.049002163, 0.024501082
1565633204881, 10.608845, 8.083191, -4.8163843, -4.9002104, 0.09089771, -0.07137272, 0.049002163, 0.027696876
1565633204891, 10.55277, 8.097562, -4.873865, -4.6942387, 0.085061215, -0.070307456, 0.040480047, 0.025566347
1565633204892, 10.584045, 8.138277, -4.9576907, -4.605623, 0.086987175, -0.070307456, 0.036218993, 0.036218993
1565633204901, 10.4363575, 8.064031, -4.912185, -4.4451566, 0.08315206, -0.068176925, 0.03089267, 0.036218993
1565633204902, 10.379492, 8.023315, -4.9313455, -4.3637257, 0.07103006, -0.06178534, 0.011717909, 0.033023197
1565633204908, 10.497906, 8.123906, -5.0822315, -4.287085, 0.06758345, -0.058589544, 0.010652645, 0.03195793
1565633204910, 10.559007, 8.147857, -5.1397123, -4.3230104, 0.055608436, -0.04261058, 0.0063915867, 0.035153728
1565633204923, 10.548993, 8.054451, -5.245093, -4.3469605, 0.06375588, -0.036218993, -0.0053263223, 0.05219796
1565633204925, 10.528509, 8.073611, -5.2019825, -4.3134303, 0.041939504, -0.026631612, -0.0053263223, 0.03195793
1565633204929, 10.606999, 8.169412, -5.2355127, -4.28469, 0.030745385, -0.007456851, 0.0, 0.029827405
1565633204930, 10.714916, 8.236472, -5.1876125, -4.478687, 0.037345078, -0.0063915867, 0.013848438, 0.034088463
1565633204943, 10.733979, 8.260423, -5.1971927, -4.4691067, 0.043113608, 0.01917476, 0.035153728, 0.015978966
1565633204945, 10.83325, 8.349038, -5.1971927, -4.543352, 0.052899793, 0.020240024, 0.046871636, 0.013848438
1565633204950, 10.743214, 8.279583, -5.103787, -4.5625124, 0.06194126, 0.040480047, 0.046871636, 0.0010652645
1565633204951, 10.791161, 8.303533, -5.122947, -4.6104126, 0.08034806, 0.04474111, 0.066046394, -0.00958738
1565633204961, 10.633212, 8.073611, -5.0750465, -4.703819, 0.100750595, 0.053263225, 0.083090626, -0.020240024
1565633204965, 10.7466755, 8.042476, -5.0415163, -5.039121, 0.110941045, 0.054328486, 0.09267801, -0.027696876
1565633204970, 10.70159, 8.013736, -5.024751, -5.005591, 0.1049272, 0.040480047, 0.08841695, -0.039414786
1565633204971, 10.654728, 7.90117, -4.905, -5.199588, 0.11246488, 0.022370555, 0.10333065, -0.03834952
1565633204980, 10.706908, 7.7718387, -4.9361353, -5.465435, 0.13807817, 0.0053263223, 0.13422333, -0.03195793
1565633204982, 10.643716, 7.810159, -4.8379397, -5.374424, 0.1538745, -0.010652645, 0.14807177, -0.040480047
1565633204992, 10.62274, 7.7694435, -4.854705, -5.376819, 0.16728044, -0.039414786, 0.1587244, -0.035153728
1565633204994, 10.518776, 7.5970025, -4.7469287, -5.513335, 0.19459964, -0.054328486, 0.18429075, -0.03089267
1565633205001, 10.495184, 7.6353226, -4.679868, -5.47262, 0.2092994, -0.07137272, 0.1949434, -0.026631612
1565633205003, 10.371684, 7.553892, -4.655918, -5.369634, 0.20280911, -0.08735169, 0.18002969, -0.033023197
1565633205009, 10.382797, 7.510782, -4.624783, -5.47741, 0.21200904, -0.112918034, 0.17789917, -0.023435818
1565633205011, 10.374457, 7.4892263, -4.6607084, -5.4606447, 0.21295965, -0.1257012, 0.17044231, -0.022370555
1565633205019, 10.332163, 7.556287, -4.5744877, -5.360054, 0.22141618, -0.13954964, 0.17044231, -0.022370555
1565633205025, 10.3181095, 7.541917, -4.5720925, -5.3552637, 0.23031649, -0.16405073, 0.15978967, -0.024501082
1565633205030, 10.294185, 7.5059915, -4.591253, -5.343289, 0.23887828, -0.16831179, 0.165116, -0.03834952
1565633205031, 10.275723, 7.5467067, -4.634363, -5.2115626, 0.25416997, -0.18216023, 0.17257284, -0.040480047
1565633205040, 10.24559, 7.5706573, -4.679868, -5.0750465, 0.26741531, -0.19600865, 0.17576863, -0.046871636
1565633205041, 10.114205, 7.5251517, -4.5768824, -4.9720607, 0.27875957, -0.20240025, 0.18216023, -0.05965481
1565633205053, 10.106218, 7.5946074, -4.600833, -4.8259645, 0.29710948, -0.2066613, 0.19920446, -0.07669904
1565633205055, 10.132188, 7.599397, -4.7014236, -4.775669, 0.2971114, -0.19707392, 0.2066613, -0.082025364
1565633205063, 10.09757, 7.6113725, -4.7157936, -4.6678934, 0.27809116, -0.17257284, 0.20026971, -0.08628642
1565633205064, 9.937034, 7.4988065, -4.629573, -4.591253, 0.27641714, -0.17150758, 0.19281286, -0.099069595
1565633205073, 9.852616, 7.441326, -4.598438, -4.533772, 0.26612216, -0.15233281, 0.19387813, -0.10013486
1565633205075, 9.893156, 7.460486, -4.6726832, -4.514612, 0.24000387, -0.1257012, 0.17044231, -0.112918034
1565633205083, 9.830507, 7.3958206, -4.6032276, -4.5553274, 0.22734351, -0.12037488, 0.14807177, -0.12357068
1565633205084, 9.791153, 7.2449346, -4.6654983, -4.648733, 0.21821286, -0.1107875, 0.12357068, -0.14168017
1565633205093, 9.755291, 7.197034, -4.5744877, -4.737349, 0.19854827, -0.10759171, 0.10333065, -0.13102753
1565633205095, 9.781049, 7.1132083, -4.5864625, -4.902605, 0.20143077, -0.111852765, 0.09267801, -0.13954964
1565633205103, 9.786969, 7.072493, -4.5768824, -4.981641, 0.19802748, -0.113983296, 0.08735169, -0.13635385
1565633205107, 9.753829, 7.096443, -4.481082, -4.9696655, 0.2049797, -0.12357068, 0.10333065, -0.12676647
1565633205111, 9.800436, 7.046148, -4.519402, -5.096602, 0.22404768, -0.1438107, 0.11824436, -0.12463594
1565633205113, 9.852131, 7.197034, -4.4116263, -5.079837, 0.23305202, -0.1438107, 0.13741912, -0.12144015
1565633205124, 9.819965, 7.086863, -4.517007, -5.079837, 0.25130534, -0.17044231, 0.15233281, -0.10439592
1565633205126, 9.76802, 7.077283, -4.5313773, -4.9792457, 0.26590034, -0.17257284, 0.17576863, -0.10013486
1565633205132, 9.701893, 7.065308, -4.512217, -4.8834453, 0.2717928, -0.17896444, 0.17896444, -0.099069595
1565633205137, 9.670016, 7.0581226, -4.643943, -4.703819, 0.2710172, -0.18535602, 0.17789917, -0.08628642
1565633205141, 9.556691, 7.0293827, -4.5936475, -4.5625124, 0.25358889, -0.17257284, 0.165116, -0.08522116
1565633205144, 9.504679, 7.0054326, -4.5577226, -4.526587, 0.24976532, -0.17257284, 0.16192019, -0.07989483
1565633205151, 9.53176, 7.1611085, -4.5744877, -4.3182206, 0.2248339, -0.15659387, 0.13954964, -0.080960095
1565633205154, 9.660029, 7.2736745, -4.624783, -4.361331, 0.21577851, -0.14807177, 0.13315806, -0.083090626
1565633205163, 9.769693, 7.4676714, -4.617598, -4.28469, 0.20968129, -0.14061491, 0.1257012, -0.09161274
1565633205166, 9.813682, 7.5035963, -4.6918435, -4.24158, 0.19656944, -0.11930962, 0.12250541, -0.096939065
1565633205171, 9.921901, 7.6353226, -4.6654983, -4.287085, 0.206996, -0.112918034, 0.128897, -0.11611383
1565633205173, 9.949679, 7.582632, -4.7804594, -4.3182206, 0.20518166, -0.099069595, 0.11824436, -0.13528858
1565633205181, 10.018651, 7.5706573, -4.8091993, -4.4643164, 0.20137163, -0.10865697, 0.10759171, -0.13102753
1565633205194, 10.130377, 7.678433, -4.8499146, -4.488267, 0.20311943, -0.10013486, 0.101200126, -0.14487597
1565633205196, 10.059764, 7.582632, -4.9169755, -4.4188113, 0.18461066, -0.07882957, 0.09161274, -0.13954964
1565633205197, 10.073478, 7.6137676, -4.888235, -4.4283915, 0.18169865, -0.070307456, 0.084155895, -0.14487597
1565633205202, 10.061393, 7.5874224, -4.91937, -4.4116263, 0.17217456, -0.04580637, 0.060720075, -0.15446335
1565633205203, 9.888881, 7.4964113, -4.792434, -4.3158255, 0.16385345, -0.02876214, 0.02876214, -0.1587244
1565633205212, 9.882952, 7.5131764, -4.86189, -4.1936793, 0.17421879, 0.0031957934, -0.013848438, -0.1736381
1565633205213, 9.920853, 7.5395217, -4.9002104, -4.191284, 0.18481648, 0.03195793, -0.051132694, -0.17470337
1565633205222, 9.999066, 7.527547, -4.8906302, -4.404441, 0.20922077, 0.04474111, -0.09267801, -0.18216023
1565633205223, 10.047861, 7.5251517, -4.8379397, -4.5744877, 0.24003696, 0.05219796, -0.12996227, -0.1949434
1565633205232, 10.117886, 7.472461, -4.8115945, -4.8355446, 0.25826678, 0.05006743, -0.14807177, -0.20559604
1565633205233, 10.2173395, 7.534732, -4.7804594, -4.976851, 0.27227667, 0.0479369, -0.15978967, -0.21518342
1565633205242, 10.179927, 7.453301, -4.775669, -5.0271463, 0.27390763, 0.0479369, -0.17576863, -0.20453078
1565633205243, 10.061014, 7.3479204, -4.6654983, -5.046306, 0.2749414, 0.035153728, -0.17789917, -0.2066613
1565633205252, 10.135567, 7.340735, -4.6511283, -5.216353, 0.26977915, 0.03195793, -0.17044231, -0.2066613
1565633205253, 10.126001, 7.2928348, -4.5409575, -5.360054, 0.27141884, 0.0063915867, -0.16937704, -0.21198763
1565633205262, 10.139524, 7.182664, -4.519402, -5.5492606, 0.2637105, -0.026631612, -0.16298546, -0.20559604
1565633205264, 10.2037115, 7.165899, -4.4691067, -5.726492, 0.26465553, -0.060720075, -0.15233281, -0.20772657
1565633205274, 10.1634035, 7.0150127, -4.4834766, -5.829478, 0.26261955, -0.10865697, -0.1470065, -0.18855181
1565633205275, 10.19104, 7.1227884, -4.4691067, -5.757627, 0.26089412, -0.13102753, -0.14274544, -0.17470337
1565633205283, 10.082322, 7.1275783, -4.505032, -5.527705, 0.28193307, -0.15978967, -0.14807177, -0.17896444
1565633205285, 9.900116, 6.998247, -4.528982, -5.3408937, 0.28540343, -0.17896444, -0.14274544, -0.17044231
1565633205293, 9.784864, 7.065308, -4.4906616, -5.0654664, 0.28133672, -0.16618125, -0.15233281, -0.16831179
1565633205297, 9.656478, 7.2257743, -4.397256, -4.6583133, 0.29215643, -0.16937704, -0.16618125, -0.17044231
1565633205303, 9.543452, 7.2353544, -4.481082, -4.3182206, 0.29955342, -0.13635385, -0.19281286, -0.18429075
1565633205305, 9.427247, 7.2760696, -4.423601, -4.045188, 0.3114273, -0.101200126, -0.22264028, -0.19281286
1565633205314, 9.329601, 7.2569094, -4.404441, -3.8703518, 0.33051363, -0.066046394, -0.257794, -0.19600865
1565633205322, 9.244973, 7.2114043, -4.526587, -3.6021094, 0.35529724, -0.03089267, -0.294013, -0.19707392
1565633205325, 9.30614, 7.31439, -4.517007, -3.5637891, 0.38118908, 0.014913702, -0.3206446, -0.20559604
1565633205326, 9.292737, 7.2808595, -4.517007, -3.5973196, 0.40325713, 0.05965481, -0.34301516, -0.2034655
1565633205335, 9.237192, 7.32397, -4.409231, -3.4991236, 0.4443187, 0.10333065, -0.36645097, -0.22903186
1565633205337, 9.358482, 7.4125857, -4.368516, -3.6811452, 0.46307647, 0.14274544, -0.38136467, -0.22050974
1565633205344, 9.365298, 7.32397, -4.4762917, -3.7458107, 0.4782468, 0.17257284, -0.37816888, -0.23648871
1565633205346, 9.425406, 7.288045, -4.373306, -4.0739284, 0.5048432, 0.20985709, -0.39734364, -0.23009712
1565633205354, 9.573238, 7.3718705, -4.382886, -4.253555, 0.5084348, 0.20772657, -0.40053943, -0.23435818
1565633205356, 9.599925, 7.32876, -4.3230104, -4.4451566, 0.5170934, 0.2247708, -0.40053943, -0.23755397
1565633205367, 9.637646, 7.3814507, -4.2343946, -4.524192, 0.5239423, 0.23435818, -0.40266997, -0.2396845
1565633205369, 9.766421, 7.422166, -4.2008643, -4.758904, 0.5257984, 0.23329292, -0.40053943, -0.24820662
1565633205375, 9.966024, 7.4030056, -4.263135, -5.132527, 0.5133039, 0.221575, -0.3888215, -0.2514024
1565633205377, 10.120124, 7.4820414, -4.2918754, -5.2929935, 0.49533996, 0.20772657, -0.3749731, -0.24820662
1565633205387, 10.230747, 7.434141, -4.26074, -5.589976, 0.45482674, 0.17257284, -0.34514567, -0.24074976
1565633205389, 10.494584, 7.556287, -4.368516, -5.8270826, 0.42255428, 0.13635385, -0.3110572, -0.2514024
1565633205396, 10.729321, 7.676038, -4.478687, -6.0114994, 0.3914162, 0.098004326, -0.2727077, -0.26312032
1565633205399, 10.755942, 7.685618, -4.5385623, -6.0019193, 0.34919393, 0.05752428, -0.23542345, -0.2514024
1565633205405, 10.835151, 7.7430983, -4.6128078, -6.013894, 0.33653927, 0.01917476, -0.2034655, -0.26738137
1565633205408, 10.887584, 7.781419, -4.6990285, -5.992339, 0.3096037, -0.0127831735, -0.17257284, -0.25672874
1565633205416, 10.851853, 7.7335186, -4.7708793, -5.9324636, 0.2983387, -0.0479369, -0.13635385, -0.2609898
1565633205419, 10.848432, 7.7215433, -4.988826, -5.760022, 0.309589, -0.082025364, -0.12144015, -0.2727077
1565633205425, 10.817444, 7.7694435, -5.005591, -5.621111, 0.30934697, -0.10333065, -0.10865697, -0.27057716
1565633205427, 10.827257, 7.8676395, -5.0894165, -5.4247193, 0.31748098, -0.113983296, -0.083090626, -0.28442562
1565633205435, 10.627482, 7.8724294, -5.130132, -4.9648757, 0.32698065, -0.1107875, -0.09054748, -0.294013
1565633205437, 10.374897, 7.7718387, -5.1780324, -4.519402, 0.32974538, -0.07456851, -0.09161274, -0.30786142
1565633205445, 10.314156, 7.8341093, -5.1900077, -4.2511597, 0.33983606, -0.041545313, -0.09054748, -0.32490566
1565633205446, 10.223743, 7.810159, -5.3025737, -3.9254372, 0.36361268, 0.013848438, -0.0958738, -0.350472
1565633205456, 10.094474, 7.7622585, -5.2187476, -3.796106, 0.38286144, 0.070307456, -0.10226539, -0.36218992
1565633205457, 10.022225, 7.7694435, -5.1660576, -3.65959, 0.42793146, 0.12463594, -0.12144015, -0.39095205
1565633205465, 10.018662, 7.6449027, -5.295388, -3.7266505, 0.45899424, 0.18109496, -0.13209279, -0.40053943
1565633205472, 9.891741, 7.5395217, -5.2019825, -3.7338357, 0.4958174, 0.2396845, -0.14807177, -0.4079963
1565633205475, 9.683304, 7.32397, -5.120552, -3.7290456, 0.5362715, 0.28975195, -0.18109496, -0.4133226
1565633205476, 9.679843, 7.2497244, -5.0726514, -3.9254372, 0.58496404, 0.34408042, -0.21198763, -0.42290998
1565633205488, 9.722752, 7.0269876, -5.2019825, -4.253555, 0.6089857, 0.37710363, -0.23861924, -0.41438788
1565633205489, 9.70165, 6.830596, -5.0582814, -4.6774735, 0.63930154, 0.3920173, -0.2727077, -0.4250405
1565633205495, 9.722769, 6.6988697, -4.9864306, -4.9792457, 0.6550588, 0.40266997, -0.314253, -0.4101268
1565633205496, 9.820162, 6.6821046, -4.9217653, -5.249883, 0.655921, 0.39947417, -0.32810146, -0.40373522
1565633205509, 9.879729, 6.449788, -4.8523097, -5.6977515, 0.64590967, 0.3834952, -0.3472762, -0.386691
1565633205510, 9.943401, 6.456973, -4.751719, -5.8821683, 0.62816375, 0.36645097, -0.34940675, -0.3717773
1565633205519, 10.046258, 6.3707523, -4.754114, -6.143225, 0.6040904, 0.3387541, -0.35579833, -0.35153726
1565633205521, 10.052777, 6.3132715, -4.703819, -6.2510014, 0.5701325, 0.3110572, -0.34834146, -0.3270362
1565633205525, 10.086586, 6.2845316, -4.600833, -6.4090724, 0.5320193, 0.2790993, -0.330232, -0.30999196
1565633205527, 10.079519, 6.229446, -4.430786, -6.569539, 0.48571154, 0.24074976, -0.30146983, -0.29507825
1565633205540, 10.119361, 6.2845316, -4.368516, -6.6198344, 0.4303194, 0.20240025, -0.27483824, -0.26205507
1565633205541, 10.133861, 6.3228517, -4.361331, -6.6102543, 0.3806752, 0.16085494, -0.24714136, -0.24074976
1565633205545, 10.180753, 6.375542, -4.382886, -6.6174393, 0.3299449, 0.12144015, -0.20879184, -0.2247708
1565633205547, 10.137909, 6.468948, -4.3541455, -6.478528, 0.2828152, 0.08735169, -0.17470337, -0.20453078
1565633205559, 10.0690365, 6.466553, -4.311035, -6.4018874, 0.26451826, 0.07137272, -0.1587244, -0.19920446
1565633205561, 9.947268, 6.488108, -4.368516, -6.1456203, 0.24309745, 0.05965481, -0.13848437, -0.19068234
1565633205572, 9.941642, 6.631809, -4.3230104, -6.013894, 0.23002313, 0.043675844, -0.13635385, -0.18002969
1565633205575, 9.77166, 6.6246243, -4.272715, -5.774392, 0.24624206, 0.04261058, -0.15765914, -0.18429075
1565633205578, 9.813654, 6.672525, -4.28469, -5.7815776, 0.25813273, 0.054328486, -0.1768339, -0.18002969
1565633205581, 9.706467, 6.6413894, -4.3086405, -5.616321, 0.28606665, 0.06498113, -0.20985709, -0.18322548
1565633205586, 9.686278, 6.662945, -4.3565407, -5.518125, 0.29853833, 0.06924219, -0.23116238, -0.17576863
1565633205589, 9.715669, 6.7539554, -4.390071, -5.4319043, 0.3334499, 0.082025364, -0.257794, -0.1949434
1565633205596, 9.588039, 6.5623536, -4.361331, -5.46304, 0.3566457, 0.0958738, -0.2790993, -0.20026971
1565633205603, 9.56383, 6.583909, -4.423601, -5.343289, 0.37245584, 0.11611383, -0.30146983, -0.18535602
1565633205606, 9.452494, 6.449788, -4.402046, -5.326524, 0.38745326, 0.12783173, -0.31957933, -0.17789917
1565633205608, 9.349043, 6.342012, -4.253555, -5.3935843, 0.39463842, 0.14061491, -0.3291667, -0.16618125
1565633205619, 9.204549, 6.222261, -4.253555, -5.2834134, 0.39694503, 0.1438107, -0.34088463, -0.1438107
1565633205621, 9.276022, 6.11688, -4.3158255, -5.47741, 0.39435077, 0.14913702, -0.34194988, -0.12783173
1565633205628, 9.290239, 6.1144853, -4.26074, -5.5468655, 0.39111024, 0.14594123, -0.34621096, -0.10865697
1565633205630, 9.299221, 6.09772, -4.174519, -5.6450615, 0.3921823, 0.15339808, -0.350472, -0.08628642
1565633205640, 9.369488, 6.0282645, -4.2056546, -5.8103175, 0.3745143, 0.14061491, -0.34194988, -0.05965481
1565633205641, 9.480167, 6.222261, -4.2008643, -5.7887626, 0.3814316, 0.13422333, -0.35473305, -0.040480047
1565633205648, 9.654911, 6.375542, -4.2056546, -5.9061184, 0.3793688, 0.1107875, -0.36112466, -0.035153728
1565633205650, 9.731979, 6.375542, -4.311035, -5.9564137, 0.37620732, 0.09161274, -0.36432046, -0.020240024
1565633205660, 9.717598, 6.5192432, -4.2200246, -5.841453, 0.3692183, 0.07669904, -0.36112466, -0.0053263223
1565633205662, 9.761397, 6.5192432, -4.277505, -5.872588, 0.36172906, 0.05219796, -0.35792887, -0.0031957934
1565633205668, 9.79395, 6.696475, -4.164939, -5.807923, 0.34833497, 0.036218993, -0.34621096, 0.0127831735
1565633205669, 9.684424, 6.605464, -4.133804, -5.750442, 0.3392378, 0.008522116, -0.3387541, 0.015978966
1565633205678, 9.77547, 6.6270194, -4.2056546, -5.8270826, 0.327057, -0.007456851, -0.32597092, 0.025566347
1565633205679, 9.758487, 6.7491655, -4.1553593, -5.6929617, 0.29905295, -0.02130529, -0.29507825, 0.043675844
1565633205689, 9.744539, 6.7779055, -4.2152348, -5.589976, 0.2908094, -0.017044231, -0.2876214, 0.039414786
1565633205691, 9.815197, 6.8976564, -4.2511597, -5.5396805, 0.2692444, -0.034088463, -0.26312032, 0.04580637
1565633205697, 9.949237, 7.077283, -4.3014555, -5.513335, 0.24019527, -0.03089267, -0.23435818, 0.04261058
1565633205699, 9.823809, 7.060518, -4.2248144, -5.367239, 0.22299422, -0.03195793, -0.21518342, 0.049002163
1565633205707, 9.920044, 7.209009, -4.164939, -5.3935843, 0.20889235, -0.027696876, -0.2034655, 0.03834952
1565633205710, 9.875927, 7.082073, -4.3301954, -5.350474, 0.21565226, -0.040480047, -0.20985709, 0.02876214
1565633205718, 9.878694, 7.1323686, -4.1984696, -5.3935843, 0.21347325, -0.043675844, -0.2066613, 0.03089267
1565633205719, 9.895978, 7.180269, -4.191284, -5.367239, 0.20138006, -0.04474111, -0.1949434, 0.023435818
1565633205727, 9.972226, 7.31439, -4.28469, -5.252278, 0.20229088, -0.04474111, -0.19600865, 0.022370555
1565633205729, 9.791198, 7.185059, -4.102669, -5.2355127, 0.19660985, -0.04261058, -0.1917476, 0.008522116
1565633205738, 9.803752, 7.182664, -4.145779, -5.2283278, 0.20360489, -0.02876214, -0.20133498, 0.00958738
1565633205747, 9.80387, 7.2904396, -4.061953, -5.144502, 0.1759719, -0.014913702, -0.17470337, -0.014913702
1565633205748, 9.73476, 7.1778736, -4.1170387, -5.127737, 0.17382753, -0.0031957934, -0.1736381, -0.007456851
1565633205750, 9.4362545, 6.9048414, -3.999683, -5.0367265, 0.17430669, 0.0063915867, -0.1736381, -0.013848438
1565633205758, 9.52358, 6.926397, -3.9733377, -5.1900077, 0.1769654, 0.004261058, -0.1768339, -0.0053263223
1565633205759, 9.618967, 6.74198, -4.112249, -5.49178, 0.17621031, -0.011717909, -0.17576863, 0.004261058
1565633205768, 9.65969, 6.70366, -4.0691385, -5.640271, 0.17047226, -0.01917476, -0.16937704, 0.002130529
1565633205770, 9.752072, 6.720425, -4.1074586, -5.750442, 0.17380795, -0.03834952, -0.16831179, 0.020240024
1565633205782, 9.747607, 6.6916847, -4.0763235, -5.7983427, 0.1718414, -0.058589544, -0.16085494, 0.014913702
1565633205785, 9.776813, 6.75156, -4.0882983, -5.7696023, 0.17705515, -0.06924219, -0.15978967, 0.03195793
1565633205789, 9.657175, 6.67971, -4.0859036, -5.6522465, 0.17736572, -0.084155895, -0.15020229, 0.04261058
1565633205791, 9.566852, 6.67013, -4.0691385, -5.52052, 0.18091002, -0.09374327, -0.14487597, 0.054328486
1565633205799, 9.642267, 6.6581545, -4.2152348, -5.5564456, 0.18998179, -0.10439592, -0.13954964, 0.07563378
1565633205801, 9.516456, 6.552774, -4.150569, -5.513335, 0.19125576, -0.11504856, -0.128897, 0.082025364
1565633205809, 9.502207, 6.6485744, -4.160149, -5.364844, 0.18618068, -0.113983296, -0.1107875, 0.096939065
1565633205811, 9.527792, 6.6677346, -4.160149, -5.3863993, 0.19424361, -0.1257012, -0.09054748, 0.11717909
1565633205820, 9.6232605, 6.7300053, -4.1098537, -5.5157304, 0.1978096, -0.13635385, -0.080960095, 0.11824436
1565633205822, 9.666791, 6.861731, -4.102669, -5.4342995, 0.19521388, -0.14274544, -0.05219796, 0.12250541
1565633205831, 9.820124, 7.0006423, -4.136199, -5.5061502, 0.20163348, -0.15659387, -0.024501082, 0.12463594
1565633205834, 9.736128, 7.060518, -4.138594, -5.2738333, 0.20478861, -0.16405073, -0.004261058, 0.12250541
1565633205840, 9.73425, 7.1347637, -4.133804, -5.1732426, 0.19998053, -0.16298546, 0.013848438, 0.11504856
1565633205843, 9.781878, 7.288045, -4.112249, -5.0654664, 0.19016388, -0.15020229, 0.033023197, 0.111852765
1565633205849, 9.750563, 7.2976246, -4.157754, -4.9529004, 0.18092568, -0.14274544, 0.035153728, 0.10546118
1565633205854, 9.6266775, 7.2832546, -4.148174, -4.734954, 0.16979527, -0.1257012, 0.043675844, 0.10546118
1565633205880, 9.706927, 7.3838453, -4.2032595, -4.6942387, 0.14111035, -0.10333065, 0.05006743, 0.082025364
1565633205881, 9.536341, 7.3455253, -4.0667434, -4.521797, 0.1323074, -0.082025364, 0.06498113, 0.080960095
1565633205885, 9.534085, 7.2736745, -4.160149, -4.5481424, 0.118555844, -0.05965481, 0.07350325, 0.07137272
1565633205887, 9.5374775, 7.321575, -4.0044727, -4.617598, 0.11469293, -0.034088463, 0.08735169, 0.066046394
1565633205888, 9.438403, 7.1371584, -4.112249, -4.608018, 0.129007, -0.022370555, 0.10652645, 0.06924219
1565633205890, 9.545892, 7.1611085, -4.0882983, -4.8091993, 0.13758418, -0.015978966, 0.11717909, 0.070307456
1565633205891, 9.443063, 6.9862723, -4.0523734, -4.893025, 0.15036839, -0.014913702, 0.12783173, 0.0777643
1565633205892, 9.50236, 6.9862723, -4.047583, -5.010381, 0.15200095, -0.0063915867, 0.1257012, 0.08522116
1565633205903, 9.474254, 6.9096317, -3.9901028, -5.108577, 0.15612939, -0.0053263223, 0.12783173, 0.08948222
1565633205905, 9.394742, 6.809041, -4.0116577, -5.079837, 0.17560393, -0.010652645, 0.13315806, 0.113983296
1565633205911, 9.440104, 6.7683253, -3.9805226, -5.240303, 0.17814457, -0.010652645, 0.128897, 0.12250541
1565633205913, 9.423839, 6.7755103, -3.9326222, -5.237908, 0.18472129, -0.023435818, 0.12357068, 0.13528858
1565633205920, 9.569567, 6.933582, -3.915857, -5.3073635, 0.19052753, -0.023435818, 0.13528858, 0.13209279
1565633205921, 9.601216, 7.0245924, -3.9278321, -5.2355127, 0.20287345, -0.03089267, 0.13635385, 0.1470065
1565633205934, 9.707478, 7.0509377, -3.9014869, -5.4127445, 0.2090227, -0.033023197, 0.14487597, 0.1470065
1565633205935, 9.771107, 7.1156034, -3.906277, -5.43909, 0.21100037, -0.05006743, 0.14913702, 0.14061491
1565633205943, 9.814419, 7.1611085, -3.8440065, -5.50136, 0.23121148, -0.07563378, 0.15765914, 0.15126756
1565633205945, 9.840947, 7.117998, -3.8535867, -5.597161, 0.22957128, -0.09054748, 0.15233281, 0.14594123
1565633205954, 9.815118, 7.182664, -3.903882, -5.4319043, 0.24289899, -0.080960095, 0.16405073, 0.15978967
1565633205956, 9.832873, 7.168294, -4.006868, -5.407954, 0.25453803, -0.099069595, 0.17257284, 0.1587244
1565633205960, 9.743947, 7.230564, -4.009263, -5.1564775, 0.2679918, -0.10439592, 0.18535602, 0.16298546
1565633205962, 9.815378, 7.431746, -3.896697, -5.0918117, 0.25291675, -0.09374327, 0.17789917, 0.15339808
1565633205971, 9.663937, 7.3311553, -3.9805226, -4.878655, 0.23857167, -0.070307456, 0.18109496, 0.13848437
1565633205972, 9.658579, 7.462881, -3.9613624, -4.679868, 0.22806115, -0.05965481, 0.18429075, 0.12037488
1565633205980, 9.646247, 7.5083866, -3.9517825, -4.5888577, 0.22221427, -0.037284255, 0.18642128, 0.11504856
1565633205984, 9.558238, 7.486831, -3.8152664, -4.5553274, 0.20757902, -0.011717909, 0.18642128, 0.09054748
1565633205990, 9.665359, 7.544312, -3.8416114, -4.663103, 0.20639206, -0.004261058, 0.19281286, 0.07350325
1565633205994, 9.635065, 7.3790555, -3.8248463, -4.873865, 0.21104875, 0.007456851, 0.20133498, 0.0628506
1565633206005, 9.620104, 7.29523, -3.8464015, -4.9529004, 0.21663143, 0.00958738, 0.20772657, 0.060720075
1565633206006, 9.561611, 7.1227884, -3.8895118, -5.0558863, 0.2159336, 0.011717909, 0.21092236, 0.04474111
1565633206014, 9.369602, 6.8880763, -3.784131, -5.101392, 0.20768286, 0.008522116, 0.20026971, 0.054328486
1565633206015, 9.350371, 6.7228203, -3.9206471, -5.1828227, 0.215389, 0.007456851, 0.20453078, 0.06711166
1565633206023, 9.310914, 6.6677346, -3.8631666, -5.225933, 0.20280632, 0.010652645, 0.18322548, 0.08628642
1565633206025, 9.266945, 6.466553, -3.8823268, -5.384004, 0.20160817, -0.0053263223, 0.17896444, 0.09267801
1565633206031, 9.290848, 6.4976883, -3.9302273, -5.352869, 0.2036244, -0.015978966, 0.16724652, 0.11504856
1565633206032, 9.1926365, 6.3707523, -3.9972878, -5.2858086, 0.2134892, -0.027696876, 0.16192019, 0.13635385
1565633206041, 9.34402, 6.5216384, -4.028423, -5.343289, 0.228091, -0.040480047, 0.1587244, 0.1587244
1565633206042, 9.417678, 6.5336137, -4.006868, -5.47262, 0.23889966, -0.049002163, 0.15659387, 0.1736381
1565633206057, 9.507851, 6.6246243, -4.0763235, -5.4678297, 0.24851047, -0.053263225, 0.15020229, 0.19068234
1565633206058, 9.577355, 6.6174393, -4.0882983, -5.5875807, 0.27224958, -0.080960095, 0.15765914, 0.2066613
1565633206062, 9.677847, 6.7707205, -4.1864944, -5.503755, 0.2877575, -0.08522116, 0.1736381, 0.2130529
1565633206064, 9.777505, 6.8904715, -4.253555, -5.479805, 0.31642836, -0.10546118, 0.1949434, 0.22583607
