TimeStamp(epoch),mAccelerometerMagnitude(m/s^2),mAccelerometerX(m/s^2),mAccelerometerY(m/s^2),mAccelerometerZ(m/s^2),mGyroscopeMagnitude(rad/s),mGyroscopeX(rad/s),mGyroscopeY(rad/s),mGyroscopeZ(rad/s) 
1565632573695, 5.075912, 4.2990603, -2.0309765, -1.7771046, 2.7825248, -1.6948358, -1.7662084, 1.3230585
1565632573699, 7.5761313, 6.1959157, -4.3301954, 0.50774413, 2.8418884, -1.6245283, -1.9164108, 1.3283848
1565632573699, 7.9968243, 6.454578, -4.5696974, 1.1855347, 2.906166, -1.5616777, -2.0719395, 1.3092101
1565632573699, 10.03643, 7.937095, -5.494175, 2.7470875, 2.958198, -1.4615428, -2.227468, 1.2857742
1565632573699, 10.449052, 8.076006, -5.4175344, 3.8224514, 3.012833, -1.365669, -2.3542345, 1.2921658
1565632573700, 9.977786, 7.9562554, -5.5468655, 2.3423293, 3.0472355, -1.2793826, -2.4469125, 1.28897
1565632573700, 10.188812, 7.95865, -5.5396805, 3.1278956, 3.065305, -1.2058793, -2.4916537, 1.3166668
1565632573700, 9.659186, 7.7287283, -5.621111, 1.4034815, 3.0935311, -1.1867046, -2.5023062, 1.3784522
1565632573701, 9.48833, 7.6233473, -5.489385, 1.334026, 3.0601642, -1.180313, -2.4309335, 1.4359765
1565632573701, 9.428665, 7.585027, -5.5947657, 0.2562671, 3.040118, -1.24849, -2.3094933, 1.5329156
1565632573701, 9.500121, 7.563472, -5.6809864, -0.87897223, 3.0378585, -1.3475596, -2.1720743, 1.6415725
1565632573705, 9.59648, 7.673643, -5.738467, -0.52690434, 3.0384169, -1.4945661, -1.9675435, 1.768339
1565632573710, 10.240692, 7.9634404, -6.0330544, -2.2489235, 3.0862906, -1.6628778, -1.780057, 1.8951055
1565632573719, 10.5276785, 8.480764, -6.1575956, -0.9963282, 3.1066344, -1.8322549, -1.5456988, 1.9760655
1565632573719, 11.383803, 9.010064, -6.5360084, -2.3854396, 3.2053041, -2.0367856, -1.3422332, 2.0793962
1565632573727, 11.630452, 9.529783, -6.6198344, -0.7927515, 3.2583423, -2.1731396, -1.1483551, 2.139051
1565632573727, 12.107894, 9.932146, -6.8976564, -0.613125, 3.3249397, -2.3073628, -1.0066749, 2.1720743
1565632573739, 12.532188, 10.360855, -7.0437527, 0.3065625, 3.3643906, -2.3776703, -0.91186637, 2.198706
1565632573739, 12.999334, 10.732083, -7.077283, 1.9279908, 3.369165, -2.4192157, -0.8404937, 2.1891184
1565632573748, 13.587998, 11.244617, -7.3838453, 1.9160157, 3.3489087, -2.4149544, -0.85966843, 2.15503
1565632573748, 14.249487, 11.441009, -7.4030056, 4.164939, 3.2938287, -2.364887, -0.89375687, 2.111354
1565632573759, 14.420291, 11.6948805, -7.6401124, 3.5781593, 3.211961, -2.2775354, -1.0013486, 2.0314593
1565632573759, 15.259407, 12.1307745, -7.5946074, 5.2929935, 3.1138592, -2.159291, -1.1142666, 1.9473034
1565632573768, 15.643663, 12.274476, -7.692803, 5.9061184, 3.0095005, -2.001632, -1.2676647, 1.8556907
1565632573768, 15.709636, 12.288846, -7.441326, 6.356382, 2.8984735, -1.8098843, -1.4242586, 1.7598169
1565632573778, 15.877627, 12.281661, -7.398216, 6.821016, 2.818099, -1.619202, -1.5883093, 1.6724652
1565632573778, 15.525766, 12.0182085, -7.230564, 6.6581545, 2.7451286, -1.4189322, -1.7299895, 1.5904398
1565632573789, 15.047591, 11.596685, -7.1323686, 6.4090724, 2.7150624, -1.2516857, -1.8631475, 1.5275892
1565632573789, 14.496513, 11.191927, -6.9719024, 6.023474, 2.6923153, -1.0961571, -1.9632823, 1.4807175
1565632573798, 13.844391, 10.806329, -6.725215, 5.4462748, 2.6938643, -0.9598033, -2.05383, 1.4551512
1565632573799, 13.262353, 10.391991, -6.6174393, 4.90979, 2.697647, -0.8490158, -2.1134846, 1.4455639
1565632573809, 12.657919, 9.999207, -6.485713, 4.263135, 2.718505, -0.773382, -2.167813, 1.4466292
1565632573809, 12.187235, 9.702225, -6.4210477, 3.6284547, 2.7326474, -0.71798825, -2.2008364, 1.4519554
1565632573819, 11.78102, 9.424402, -6.3228517, 3.1614258, 2.7485719, -0.6668556, -2.2168152, 1.4817829
1565632573819, 11.548747, 9.206455, -6.361172, 2.8548634, 2.7462223, -0.64341974, -2.2093585, 1.4988271
1565632573829, 11.394215, 9.168135, -6.2989016, 2.4692652, 2.7362711, -0.6306366, -2.183792, 1.5233282
1565632573829, 11.177194, 9.137, -6.095325, 2.071692, 2.7107265, -0.62744075, -2.1358552, 1.546764
1565632573839, 11.09406, 9.091495, -6.143225, 1.6381935, 2.6709342, -0.6348976, -2.0676782, 1.567004
1565632573840, 11.037313, 9.074729, -6.1216702, 1.4130616, 2.6503646, -0.66579026, -2.0069582, 1.5978967
1565632573849, 10.992512, 8.952583, -6.2701616, 1.1711646, 2.6264606, -0.67537767, -1.9483687, 1.6266588
1565632573849, 10.847989, 8.734636, -6.353987, 1.0059083, 2.6265795, -0.7073356, -1.901497, 1.6682042
1565632573859, 10.844233, 8.650811, -6.478528, 0.8885523, 2.6061075, -0.7339672, -1.8386464, 1.6948358
1565632573860, 10.98493, 8.727451, -6.67013, 0.098195806, 2.609212, -0.753142, -1.7960359, 1.736381
1565632573870, 11.279884, 8.971744, -6.7395854, 1.1496094, 2.5788116, -0.7414241, -1.7427727, 1.7502295
1565632573871, 11.438283, 9.08431, -6.8018556, 1.4298267, 2.5597064, -0.7414241, -1.7012273, 1.7630126
1565632573879, 11.7614355, 9.347761, -7.0916533, 0.81191164, 2.540858, -0.71479243, -1.6820526, 1.7651432
1565632573880, 12.000115, 9.4507475, -7.0221977, 2.318379, 2.5037951, -0.6775082, -1.6437031, 1.7630126
1565632573889, 12.181744, 9.745335, -7.2425394, 0.98435307, 2.490813, -0.62104917, -1.6564863, 1.7534252
1565632573889, 12.687927, 10.015972, -7.204219, 2.9602442, 2.4296434, -0.5400891, -1.6170714, 1.7310548
1565632573899, 12.724013, 10.229129, -7.4030056, 1.5687379, 2.3823013, -0.4676511, -1.6064188, 1.695901
1565632573900, 13.229493, 10.6746025, -7.3383403, 2.687212, 2.3156128, -0.36964676, -1.5808525, 1.6511599
1565632573910, 13.21665, 10.760823, -7.335945, 2.2513185, 2.2565117, -0.29294774, -1.5584819, 1.6053536
1565632573911, 13.308052, 10.866204, -7.3958206, 2.0812721, 2.2250006, -0.2130529, -1.587244, 1.5446335
1565632573920, 13.303711, 10.722503, -7.2808595, 3.0009596, 2.187547, -0.12783173, -1.587244, 1.4998924
1565632573921, 12.899753, 10.581197, -7.197034, 1.6262183, 2.182936, -0.041545313, -1.6266588, 1.4551512
1565632573930, 13.001316, 10.454261, -6.9790874, 3.3218923, 2.1646411, 0.060720075, -1.6223978, 1.4317155
1565632573931, 12.494991, 10.284214, -6.947952, 1.4441968, 2.1773465, 0.13422333, -1.659682, 1.4029533
1565632573941, 12.516006, 10.221944, -6.758745, 2.5459058, 2.1692388, 0.221575, -1.6522251, 1.3880396
1565632573941, 12.106442, 10.015972, -6.6605496, 1.3723463, 2.1689632, 0.26844665, -1.6511599, 1.3805827
1565632573950, 11.999733, 10.030342, -6.476133, 1.2022998, 2.1529217, 0.30999196, -1.6298546, 1.3720607
1565632573951, 11.837106, 9.802815, -6.543194, 1.099314, 2.1112623, 0.30466563, -1.5819178, 1.3646038
1565632573961, 11.888282, 9.862691, -6.6198344, -0.48618898, 2.0718615, 0.2908172, -1.5382419, 1.3571469
1565632573961, 11.679816, 9.73815, -6.444998, -0.2203418, 2.030273, 0.2695119, -1.4828482, 1.3603427
1565632573972, 11.65594, 9.704619, -6.447393, -0.33530274, 1.9962198, 0.24074976, -1.4349113, 1.3667343
1565632573972, 11.562737, 9.596844, -6.4258375, -0.55324954, 1.9525671, 0.21092236, -1.3741912, 1.3709954
1565632573980, 11.396559, 9.419612, -6.3947024, -0.51013917, 1.9519703, 0.1917476, -1.3379722, 1.4082797
1565632573981, 11.336288, 9.323812, -6.4330225, -0.4406836, 1.923379, 0.18002969, -1.2964269, 1.4093449
1565632573990, 11.48995, 9.510623, -6.4354177, -0.3903882, 1.8970721, 0.16831179, -1.2442288, 1.4221281
1565632573991, 11.581348, 9.575289, -6.5072684, -0.31135255, 1.8697493, 0.18535602, -1.1920309, 1.4285196
1565632574001, 11.883104, 9.802815, -6.715635, -0.11496094, 1.8060477, 0.20453078, -1.1227888, 1.3997575
1565632574001, 12.119282, 10.044712, -6.7803006, 0.09101075, 1.7630469, 0.23755397, -1.0663297, 1.3837786
1565632574011, 12.393357, 10.30098, -6.8880763, 0.19878663, 1.7270976, 0.28442562, -1.0503508, 1.3411679
1565632574018, 12.424227, 10.32972, -6.8904715, 0.4239185, 1.6908985, 0.32597092, -1.0407634, 1.2921658
1565632574018, 12.495531, 10.408755, -6.878496, 0.6945557, 1.6474463, 0.39947417, -1.0162623, 1.2335763
1565632574019, 12.6144085, 10.530901, -6.8952613, 0.82388675, 1.5966251, 0.47297743, -0.98856544, 1.1611383
1565632574032, 12.799392, 10.753638, -6.8808913, 0.9148975, 1.5558482, 0.5550028, -0.96299905, 1.0887003
1565632574033, 12.888365, 10.918895, -6.7850904, 0.92208254, 1.5337862, 0.6530071, -0.9416938, 1.019458
1565632574042, 12.855473, 10.897339, -6.7731156, 0.79754156, 1.5018374, 0.73822826, -0.9076053, 0.9416938
1565632574043, 12.845282, 10.914104, -6.7324004, 0.74724615, 1.4846512, 0.82344943, -0.8681905, 0.8788432
1565632574052, 12.7039385, 10.839859, -6.605464, 0.50534916, 1.4802538, 0.90014845, -0.8607337, 0.8000136
1565632574052, 12.353038, 10.473421, -6.5384035, 0.39278322, 1.484491, 0.99495703, -0.80107886, 0.75633776
1565632574062, 11.551732, 9.848321, -5.9037232, 1.2645704, 1.5226177, 1.0780476, -0.7797736, 0.74035877
1565632574062, 12.06717, 10.126143, -6.480923, -1.0370435, 1.5623496, 1.1323761, -0.8159926, 0.70200926
1565632574072, 12.20737, 10.317744, -6.5216384, 0.17962648, 1.5637349, 1.1707256, -0.8042747, 0.6540724
1565632574073, 12.23886, 10.049502, -6.6916847, -2.0046315, 1.5225015, 1.1515509, -0.7861652, 0.6114618
1565632574082, 12.143532, 10.061478, -6.543194, -1.8489552, 1.4653281, 1.1195929, -0.75101143, 0.57417756
1565632574083, 11.994738, 9.826766, -6.461763, -2.3566992, 1.3808035, 1.0759171, -0.67963874, 0.535828
1565632574094, 12.24179, 9.845925, -6.3947024, -3.4679885, 1.3000151, 1.0173275, -0.6317018, 0.50600064
1565632574095, 11.877833, 9.843531, -6.1504107, -2.5219557, 1.1946602, 0.93636745, -0.5635249, 0.4825648
1565632574103, 12.44058, 9.81958, -6.2989016, -4.3206153, 1.0989549, 0.85753787, -0.51984906, 0.4495416
1565632574103, 11.94705, 9.865086, -6.1767554, -2.694397, 0.99637824, 0.79681784, -0.4314321, 0.41438788
1565632574112, 12.422076, 9.807606, -6.205496, -4.4283915, 0.88215476, 0.6945524, -0.38775626, 0.38136467
1565632574112, 12.238388, 9.956097, -6.2701616, -3.3673975, 0.78561217, 0.62317973, -0.3334278, 0.34301516
1565632574122, 12.371496, 9.939331, -6.2941117, -3.8272414, 0.66821975, 0.52837116, -0.294013, 0.28442562
1565632574123, 12.599777, 9.989627, -6.461763, -4.148174, 0.57304597, 0.44421527, -0.26844665, 0.2428803
1565632574132, 12.06503, 9.721385, -6.454578, -3.0656252, 0.4803457, 0.37710363, -0.2247708, 0.1949434
1565632574133, 12.187009, 9.333391, -6.5551686, -4.29427, 0.4235749, 0.314253, -0.21518342, 0.18535602
1565632574142, 11.381925, 9.086704, -6.5336137, -2.071692, 0.401527, 0.28549087, -0.22264028, 0.1736381
1565632574143, 11.491791, 8.772957, -6.696475, -3.2021413, 0.42739016, 0.26205507, -0.2908172, 0.17150758