TimeStamp(epoch),mAccelerometerMagnitude(m/s^2),mAccelerometerX(m/s^2),mAccelerometerY(m/s^2),mAccelerometerZ(m/s^2),mGyroscopeMagnitude(rad/s),mGyroscopeX(rad/s),mGyroscopeY(rad/s),mGyroscopeZ(rad/s) 
1565633729762, 8.64727, 2.6417067, 0.74006104, 8.200547, 0.68191737, 0.23861924, -0.45699844, 0.4463458
1565633729762, 8.354566, 2.818938, 0.69216067, 7.8341093, 0.7318444, 0.23116238, -0.5336975, 0.44421527
1565633729770, 8.127381, 2.9746144, 0.7113208, 7.5299416, 0.7603407, 0.2130529, -0.5933523, 0.4250405
1565633729772, 7.791199, 2.9458742, 0.732876, 7.175479, 0.7756186, 0.15765914, -0.63915867, 0.4101268
1565633729782, 7.5776095, 3.06802, 0.7041358, 6.8928666, 0.79017925, 0.09161274, -0.6711166, 0.406931
1565633729783, 7.1730294, 3.0943654, 0.68018556, 6.4354177, 0.7977935, 0.00958738, -0.69774824, 0.386691
1565633729793, 6.9387403, 3.187771, 0.71371585, 6.1216702, 0.8014627, -0.10333065, -0.7041398, 0.3685815
1565633729793, 6.91577, 3.412903, 0.68737066, 5.975574, 0.8299832, -0.21092236, -0.71798825, 0.35899413
1565633729801, 6.952189, 3.65959, 0.62989014, 5.877378, 0.91820914, -0.32810146, -0.8000136, 0.3089267
1565633729801, 7.8327575, 4.960086, 0.51492923, 6.0402393, 0.97571015, -0.44528055, -0.83942837, 0.221575
1565633729813, 7.499469, 4.28469, 0.4167334, 6.1408305, 0.965283, -0.5400891, -0.7797736, 0.17896444
1565633729814, 7.4279604, 3.4991236, 0.38559815, 6.5407987, 0.97771835, -0.6135923, -0.7435546, 0.16298546
1565633729821, 7.7272058, 3.2069314, 0.33769777, 7.0221977, 0.97659713, -0.66365975, -0.6945524, 0.17576863
1565633729821, 8.94904, 2.818938, 0.366438, 8.485555, 0.9690453, -0.6785734, -0.66152924, 0.20240025
1565633729831, 7.9695015, 2.2561085, 0.29698244, 7.6377177, 0.9740706, -0.6764429, -0.6530071, 0.2545982
1565633729831, 9.29261, 2.0525317, 0.22273682, 9.060359, 0.9715293, -0.66365975, -0.6412892, 0.30360037
1565633729843, 9.036181, 1.7124391, 0.15088624, 8.871153, 0.9763903, -0.6380934, -0.6380934, 0.37284255
1565633729843, 9.243501, 1.6693287, -0.019160157, 9.091495, 0.9771495, -0.5901565, -0.6359629, 0.4495416
1565633729852, 9.725159, 1.3867164, -0.06227051, 9.625584, 0.98847187, -0.5581986, -0.624245, 0.5251754
1565633729852, 8.876266, 1.2621753, -0.14130616, 8.784932, 1.0000076, -0.4889564, -0.62317973, 0.6103965
1565633729861, 10.264698, 1.334026, -0.2706372, 10.174044, 0.9916056, -0.42184472, -0.5933523, 0.67324716
1565633729862, 8.78993, 1.468147, -0.47900394, 8.653206, 1.0404624, -0.37071204, -0.65194184, 0.721184
1565633729871, 10.116455, 1.7890797, -0.2562671, 9.953702, 1.0782965, -0.30253512, -0.68176925, 0.77870834
1565633729871, 9.107117, 2.1746778, -0.25387207, 8.840017, 1.1219066, -0.2545982, -0.75101143, 0.793622
1565633729883, 9.432094, 2.687212, -0.0023950196, 9.041199, 1.1757677, -0.21198763, -0.8511463, 0.78296936
1565633729884, 9.437325, 3.1255007, -0.031135255, 8.904683, 1.227578, -0.21198763, -0.9321064, 0.7701862
1565633729892, 8.739172, 3.7386258, -0.07185059, 7.8987746, 1.2960788, -0.20133498, -1.0460896, 0.73822826
1565633729892, 9.639249, 3.9350173, 0.05508545, 8.799302, 1.3451595, -0.2247708, -1.1291803, 0.6956177
1565633729901, 7.885241, 3.9134622, 0.09101075, 6.844966, 1.4287441, -0.25885928, -1.2367721, 0.6668556
1565633729902, 9.040783, 3.8775368, 0.2802173, 8.162227, 1.4640721, -0.3110572, -1.2825783, 0.63383234
1565633729915, 7.3963847, 3.666775, 0.17723145, 6.4210477, 1.5213729, -0.3685815, -1.3390374, 0.62104917
1565633729915, 8.06265, 3.7458107, 0.32332766, 7.1323686, 1.549049, -0.42290998, -1.3560816, 0.6178534
1565633729926, 7.710228, 3.779341, 0.17962648, 6.71803, 1.5876147, -0.47723848, -1.3880396, 0.60507023
1565633729926, 8.090357, 3.9398074, 0.11496094, 7.065308, 1.6339623, -0.5187838, -1.4263891, 0.60507023
1565633729933, 8.381578, 3.9829175, 0.086220704, 7.3742657, 1.6446434, -0.5294364, -1.4391723, 0.5944176
1565633729933, 8.636665, 4.009263, 0.0, 7.6496925, 1.6547604, -0.5400891, -1.442368, 0.60507023
1565633729945, 8.916864, 4.021238, 0.0, 7.95865, 1.6321384, -0.5368933, -1.4189322, 0.6018744
1565633729945, 9.1116085, 4.191284, -0.019160157, 8.090376, 1.61568, -0.5091964, -1.4125407, 0.5965481
1565633729954, 9.388568, 4.533772, -0.16286133, 8.2197075, 1.5836341, -0.4878911, -1.3848438, 0.5933523
1565633729954, 9.326449, 4.488267, -0.244292, 8.171807, 1.5580697, -0.46232477, -1.3635385, 0.5954828
1565633729964, 9.407747, 4.5409575, -0.2921924, 8.234077, 1.5228759, -0.4463458, -1.3347764, 0.5816344
1565633729964, 9.3132, 4.639153, -0.26345217, 8.071217, 1.4754148, -0.41971418, -1.2964269, 0.5656554
1565633729975, 9.038314, 4.6966333, -0.21794678, 7.719148, 1.4304233, -0.43569317, -1.2399678, 0.56459016
1565633729975, 8.618459, 4.6032276, -0.086220704, 7.28565, 1.3923903, -0.4708469, -1.1835088, 0.56245965
1565633729986, 8.07903, 4.598438, -0.33530274, 6.6342044, 1.3369858, -0.5294364, -1.0961571, 0.55287224
1565633729986, 7.718619, 4.5864625, -0.4263135, 6.1935205, 1.2766389, -0.6263755, -0.9683254, 0.5475459
1565633729994, 7.379928, 4.5960426, -0.366438, 5.7624173, 1.2353187, -0.74035877, -0.8213189, 0.55074173
1565633729995, 7.2599807, 4.502637, -0.39996827, 5.6809864, 1.2075143, -0.8479505, -0.6583334, 0.55287224
1565633730007, 7.2996683, 4.505032, -0.41194338, 5.728887, 1.2132782, -0.96299905, -0.5006743, 0.5422196
1565633730008, 7.604308, 4.478687, -0.5125342, 6.1240654, 1.2517194, -1.0386329, -0.41864893, 0.5592638
1565633730015, 8.265581, 4.6128078, -0.62031007, 6.830596, 1.2767456, -1.0929613, -0.37923414, 0.5400891
1565633730016, 9.172459, 4.9696655, -0.46942386, 7.695198, 1.2927313, -1.1153319, -0.41758367, 0.5028048
1565633730025, 9.804775, 5.4127445, -0.5029541, 8.159832, 1.2822342, -1.0887003, -0.50387007, 0.4527374
1565633730026, 11.359876, 5.752837, -0.48139894, 9.783655, 1.3022805, -1.0727214, -0.61891866, 0.40266997
1565633730035, 10.416117, 5.958809, -0.7592212, 8.509504, 1.3353442, -1.0492855, -0.75420725, 0.33662358
1565633730036, 12.422957, 6.452183, -0.79754156, 10.585987, 1.3696339, -0.9800433, -0.91612744, 0.2759035
1565633730045, 11.707226, 6.466553, -1.0083033, 9.707015, 1.4625131, -0.8841695, -1.1504856, 0.18322548
1565633730046, 12.793905, 6.198311, -0.7711963, 11.165582, 1.5105597, -0.78296936, -1.2857742, 0.12463594
1565633730056, 11.166445, 5.702542, -0.5484595, 9.584868, 1.5555233, -0.77231675, -1.3475596, 0.08522116
1565633730057, 10.739527, 5.5660257, -0.6586304, 9.16095, 1.5863827, -0.7488809, -1.3965617, 0.07350325
1565633730065, 11.095228, 5.7863674, -0.9915381, 9.414823, 1.5567178, -0.7552725, -1.3603427, 0.049002163
1565633730066, 9.702691, 5.4295096, -1.2454102, 7.94428, 1.5274065, -0.76912093, -1.3187973, 0.046871636
1565633730076, 10.687571, 5.2810183, -1.0442286, 9.2328005, 1.4709841, -0.7978831, -1.2346416, 0.053263225
1565633730076, 8.974087, 5.2882032, -1.104104, 7.165899, 1.4682815, -0.84581995, -1.1984226, 0.06498113
1565633730086, 10.258931, 5.3217335, -1.0035132, 8.713081, 1.4229226, -0.8905611, -1.107875, 0.06498113
1565633730087, 9.1174, 5.357659, -1.463357, 7.230564, 1.3848159, -0.94808537, -1.0077401, 0.05752428
1565633730096, 9.66446, 5.3169436, -1.5974782, 7.91075, 1.3586967, -1.0056096, -0.9108011, 0.07243799
1565633730096, 9.482286, 5.1157618, -1.4513819, 7.8508744, 1.3148634, -1.0620687, -0.77125144, 0.0777643
1565633730106, 9.041937, 5.2977834, -1.5184424, 7.168294, 1.3093538, -1.1142666, -0.6828345, 0.080960095
1565633730106, 10.150166, 5.1828227, -1.5495777, 8.58854, 1.3140088, -1.1739215, -0.58269966, 0.094808534
1565633730117, 8.964638, 5.1756372, -1.7555494, 7.1060233, 1.3457934, -1.2218584, -0.551807, 0.11717909
1565633730117, 10.583945, 5.1636624, -1.695674, 9.081915, 1.3484052, -1.24849, -0.4910869, 0.13528858
1565633730126, 9.958763, 5.1732426, -1.705254, 8.337064, 1.3492262, -1.2580773, -0.46019423, 0.16085494
1565633730127, 10.1536045, 5.216353, -1.8082398, 8.52148, 1.368071, -1.2729911, -0.4708469, 0.17150758
1565633730136, 10.687536, 5.1924024, -1.8274, 9.16095, 1.3903726, -1.2463595, -0.57417756, 0.22370553
1565633730137, 11.115789, 5.261858, -2.0237916, 9.580078, 1.38538, -1.1867046, -0.6849651, 0.20453078
1565633730146, 11.656582, 5.465435, -2.0237916, 10.095008, 1.408309, -1.107875, -0.84581995, 0.20133498
1565633730147, 11.550101, 5.079837, -1.9232007, 10.193204, 1.4847467, -1.031176, -1.0407634, 0.24074976
1565633730157, 11.269465, 4.6583133, -1.6765138, 10.123748, 1.5648358, -0.9555422, -1.2058793, 0.28549087
1565633730157, 11.135343, 4.631968, -1.7004639, 9.982442, 1.634896, -0.87138635, -1.3443637, 0.32597092
1565633730167, 11.306846, 4.9169755, -1.8034497, 10.020762, 1.7079103, -0.78936094, -1.4711303, 0.36005938
1565633730167, 11.442614, 5.132527, -1.8968556, 10.049502, 1.7681073, -0.6892261, -1.5819178, 0.38562572
1565633730177, 11.578484, 5.237908, -1.9974464, 10.130933, 1.8391109, -0.5837649, -1.6948358, 0.4111921
1565633730178, 11.547426, 5.233118, -1.9878663, 10.099798, 1.8892413, -0.479369, -1.7726, 0.44421527
1565633730187, 11.618576, 5.508545, -1.8345851, 10.063872, 1.9125633, -0.35899413, -1.8226675, 0.45486793
1565633730188, 11.552196, 5.745652, -1.83219, 9.85311, 1.949665, -0.26312032, -1.8769959, 0.45699844
1565633730197, 11.442811, 6.0689797, -1.8753004, 9.517808, 2.0209873, -0.18322548, -1.9515644, 0.49215218
1565633730198, 10.551138, 5.007986, -1.0442286, 9.22801, 2.0740418, -0.13315806, -2.0069582, 0.50600064
1565633730208, 10.714087, 6.5096636, -1.8513502, 8.305928, 2.0116441, -0.082025364, -1.9558256, 0.46339005
1565633730209, 9.973753, 6.476133, -1.6525636, 7.4030056, 1.9166695, -0.07350325, -1.8588865, 0.4612595
1565633730218, 9.134609, 6.255791, -1.465752, 6.4928985, 1.8233308, -0.1257012, -1.7598169, 0.46019423
1565633730219, 8.783896, 6.5455885, -1.5376027, 5.6522465, 1.6886023, -0.22370553, -1.6128104, 0.44741106
1565633730227, 8.943896, 6.8832865, -1.4346168, 5.527705, 1.5306426, -0.330232, -1.4306501, 0.43249738
1565633730228, 8.52551, 7.213799, -1.3915064, 4.3254056, 1.3638806, -0.46658584, -1.2218584, 0.386691
1565633730238, 8.917583, 7.92991, -1.5112574, 3.788921, 1.2144972, -0.5816344, -1.0226538, 0.30146983
1565633730238, 9.611399, 8.272398, -1.5136524, 4.653523, 1.1238338, -0.721184, -0.83516735, 0.2130529
1565633730248, 9.54554, 8.6077, -1.8010547, 3.7122805, 1.1263257, -0.8213189, -0.76059884, 0.12463594
1565633730248, 10.590643, 8.459209, -1.6836988, 6.1456203, 1.1314744, -0.8948221, -0.69135666, 0.039414786
1565633730258, 9.724042, 8.164622, -1.8082398, 4.9624805, 1.1855035, -0.9619338, -0.6924219, -0.025566347
1565633730258, 10.633319, 7.9347, -1.7579445, 6.856941, 1.2021966, -0.9864349, -0.68389976, -0.06711166
1565633730268, 10.211655, 7.767049, -1.9854712, 6.325247, 1.247758, -1.019458, -0.7105314, -0.112918034
1565633730269, 10.494753, 7.4197707, -2.1267774, 7.110813, 1.2680904, -1.0130665, -0.75101143, -0.13315806
1565633730278, 10.826041, 7.0365677, -2.318379, 7.893985, 1.2710904, -0.99282646, -0.7819041, -0.13635385
1565633730279, 10.398846, 6.9383717, -2.44292, 7.350315, 1.2861638, -0.95234644, -0.8522116, -0.14487597
1565633730289, 11.972365, 6.856941, -2.459685, 9.501043, 1.260057, -0.86179894, -0.9076053, -0.14594123
1565633730289, 10.941252, 6.6102543, -2.8524685, 8.238868, 1.2848847, -0.7755125, -1.0130665, -0.15233281
1565633730298, 12.62306, 6.5360084, -2.7351124, 10.447076, 1.2692505, -0.63702816, -1.087635, -0.14913702
1565633730299, 11.719271, 6.423443, -2.926714, 9.354947, 1.3063625, -0.5123922, -1.1941614, -0.13422333
1565633730308, 12.505189, 6.576724, -2.9722195, 10.212363, 1.3679712, -0.37710363, -1.3070794, -0.1438107
1565633730309, 12.232695, 6.696475, -2.8524685, 9.831555, 1.4522008, -0.2695119, -1.4189322, -0.15126756
1565633730319, 11.50142, 6.9072366, -2.8333082, 8.749006, 1.5584383, -0.17044231, -1.5371766, -0.1917476
1565633730319, 11.529494, 7.0293827, -2.7566676, 8.713081, 1.6413374, -0.13209279, -1.6266588, -0.17470337
1565633730329, 10.27756, 6.365962, -2.193838, 7.7646537, 1.8021941, -0.18429075, -1.784318, -0.1736381
1565633730330, 10.182966, 7.4772515, -2.804568, 6.318062, 1.8191367, -0.21198763, -1.7928401, -0.22370553
1565633730339, 9.728197, 7.582632, -2.6273365, 5.4989653, 1.7903832, -0.28655612, -1.7459685, -0.27377295
1565633730340, 9.017539, 7.3814507, -2.304009, 4.639153, 1.6978755, -0.38562572, -1.6341157, -0.25246766
1565633730350, 8.504075, 7.1467385, -2.311194, 3.9877076, 1.5472543, -0.5070659, -1.4455639, -0.21731395
1565633730350, 8.057212, 6.7779055, -2.3782544, 3.6500099, 1.4152395, -0.6348976, -1.2495552, -0.19600865
1565633730360, 8.068071, 6.7467704, -2.3734643, 3.7338357, 1.319203, -0.74248934, -1.0791129, -0.15659387
1565633730361, 8.197152, 6.662945, -2.3854396, 4.136199, 1.280971, -0.8362326, -0.96299905, -0.11930962
1565633730369, 8.421152, 6.734795, -2.2561085, 4.524192, 1.2880325, -0.9257148, -0.89162636, -0.084155895
1565633730370, 8.872236, 7.0174074, -2.2441335, 4.9433208, 1.2887156, -0.98110855, -0.83516735, -0.026631612
1565633730380, 9.243922, 7.316785, -2.318379, 5.151687, 1.2759907, -1.0173275, -0.7701862, -0.0031957934
1565633730381, 9.634614, 7.580237, -2.4261549, 5.4295096, 1.2775124, -1.0684602, -0.69987875, 0.024501082
1565633730390, 9.983168, 7.8868, -2.5770411, 5.5516553, 1.2573681, -1.0833739, -0.63702816, 0.03834952
1565633730391, 10.252711, 8.008945, -2.7015822, 5.8031325, 1.2345759, -1.0780476, -0.5997439, 0.0479369
1565633730401, 10.652544, 8.1143265, -2.7614577, 6.325247, 1.217065, -1.0705907, -0.57417756, 0.07350325
1565633730402, 11.138088, 8.284373, -2.8883936, 6.861731, 1.1738063, -1.0205233, -0.5763081, 0.06498113
1565633730411, 11.558595, 8.363408, -2.8213332, 7.462881, 1.1196989, -0.9534117, -0.5837649, 0.0628506
1565633730411, 11.838178, 8.301138, -2.9027638, 7.92512, 1.0347667, -0.85327685, -0.5816344, 0.066046394
1565633730421, 12.149888, 8.365804, -2.8716285, 8.329878, 0.9322209, -0.71798825, -0.59228706, 0.05219796
1565633730422, 11.885257, 8.404124, -2.9674294, 7.862849, 0.8734324, -0.58269966, -0.6498113, 0.033023197
1565633730431, 13.013366, 8.363408, -2.8668385, 9.5489435, 0.82271045, -0.45806372, -0.6828345, 0.027696876
1565633730432, 11.281273, 8.217313, -2.914739, 7.158714, 0.86779964, -0.36964676, -0.7850999, 0.007456851
1565633730438, 11.789959, 8.224498, -2.7638526, 7.9826, 0.93118984, -0.29188246, -0.8841695, -0.0127831735
1565633730439, 10.710926, 8.047266, -2.7207422, 6.5240335, 1.0529647, -0.27483824, -1.0162623, -0.020240024
1565633730447, 10.482573, 8.145462, -2.6608667, 6.0378447, 1.1840974, -0.24074976, -1.1590078, -0.02876214
1565633730448, 10.393988, 7.810159, -2.668052, 6.318062, 1.3104415, -0.23435818, -1.28897, -0.029827405
1565633730457, 9.2058325, 7.5299416, -2.5890162, 4.6199927, 1.4953346, -0.2428803, -1.4753913, 0.015978966
1565633730458, 9.751695, 7.206614, -2.3782544, 6.1240654, 1.5730494, -0.24607609, -1.5531555, 0.040480047
1565633730468, 8.47068, 7.0509377, -2.5962012, 3.911067, 1.6243662, -0.25885928, -1.6021577, 0.068176925
1565633730469, 8.7439785, 6.70366, -2.3543043, 5.096602, 1.5986187, -0.2609898, -1.5712651, 0.13635385
1565633730478, 8.02548, 6.471343, -2.459685, 4.0595584, 1.5795168, -0.28336033, -1.5403724, 0.20453078
1565633730478, 8.237375, 6.447393, -2.7183473, 4.3469605, 1.5286118, -0.2695119, -1.4807175, 0.26738137
1565633730488, 8.382237, 6.334827, -2.7973828, 4.7229786, 1.4934376, -0.28229508, -1.4295849, 0.3270362
1565633730488, 7.9389453, 6.4258375, -2.6896071, 3.8080812, 1.4776814, -0.25992453, -1.4008228, 0.3920173
1565633730498, 8.843133, 6.595884, -2.574646, 5.2977834, 1.4434026, -0.24607609, -1.3518206, 0.44208476
1565633730498, 8.16024, 6.835386, -2.8979738, 3.3865578, 1.4401469, -0.24607609, -1.3347764, 0.48149952
1565633730508, 9.185004, 7.2521195, -2.818938, 4.88105, 1.3914621, -0.221575, -1.2697952, 0.52411014
1565633730508, 8.742876, 7.549102, -2.9913795, 3.2404616, 1.3559545, -0.25353295, -1.2250541, 0.5230448
1565633730518, 9.209574, 7.822134, -2.9506643, 3.8631666, 1.3049077, -0.24607609, -1.171791, 0.5187838
1565633730518, 9.1367655, 8.011341, -2.9530592, 3.2524366, 1.253744, -0.2759035, -1.1100056, 0.5134575
1565633730528, 9.146663, 8.169412, -2.924319, 2.8931837, 1.188246, -0.32490566, -1.0162623, 0.5230448
1565633730529, 9.3948345, 8.502319, -3.0033545, 2.6369166, 1.12768, -0.3898868, -0.9310411, 0.5028048
1565633730538, 9.421238, 8.641231, -2.9650342, 2.3016138, 1.0945809, -0.4676511, -0.8511463, 0.5049353
1565633730538, 9.538757, 8.801697, -3.0536501, 2.047742, 1.0596393, -0.55287224, -0.77231675, 0.46978164
1565633730548, 9.488692, 8.749006, -3.0776002, 2.0046315, 1.0396833, -0.62317973, -0.7030745, 0.44528055
1565633730549, 9.503101, 8.760982, -2.9794044, 2.1627028, 1.0533224, -0.7052051, -0.64555025, 0.44208476
1565633730558, 9.626936, 8.828042, -3.0823903, 2.2896388, 1.0608119, -0.74675035, -0.6221144, 0.4250405
1565633730559, 9.720443, 8.863968, -3.1542408, 2.44292, 1.0995826, -0.80747044, -0.6263755, 0.40586576
1565633730568, 9.911756, 8.907078, -3.2859669, 2.8476784, 1.137845, -0.8277105, -0.6764429, 0.3898868
1565633730569, 9.871219, 8.751402, -3.3650026, 3.0871804, 1.2025481, -0.8511463, -0.75420725, 0.39095205
1565633730579, 9.91989, 8.55501, -3.4512234, 3.647615, 1.2344981, -0.82877576, -0.8277105, 0.3898868
1565633730579, 10.000406, 8.47837, -3.6811452, 3.8176613, 1.2670689, -0.79681784, -0.9033443, 0.3930826
1565633730588, 10.022925, 8.289163, -3.8392165, 4.1242237, 1.2940859, -0.7456851, -0.9757822, 0.4079963
1565633730589, 10.00526, 8.042476, -4.018843, 4.390071, 1.3318354, -0.6743124, -1.0652645, 0.4293016
1565633730599, 9.818617, 7.690408, -4.152964, 4.4738965, 1.3946184, -0.60507023, -1.1653993, 0.46978164
1565633730599, 9.590559, 7.4054008, -4.0427933, 4.5601172, 1.4668958, -0.53476274, -1.2644689, 0.51665324
1565633730608, 9.5451975, 7.33355, -4.119434, 4.512217, 1.5617205, -0.46339005, -1.3795174, 0.56672066
1565633730609, 9.431087, 7.32397, -4.129014, 4.272715, 1.6789389, -0.4016047, -1.5116103, 0.6103965
1565633730619, 9.374864, 7.2808595, -4.1314087, 4.2200246, 1.7969524, -0.34194988, -1.6362462, 0.6593987
1565633730619, 9.283416, 7.28565, -4.1170387, 4.018843, 1.9233656, -0.28442562, -1.7619474, 0.716923
1565633730629, 9.366742, 7.573052, -4.1050634, 3.67875, 2.0105424, -0.24501082, -1.8514296, 0.74461985
1565633730630, 9.5879755, 7.9347, -4.1242237, 3.4584084, 2.0544596, -0.20453078, -1.9025623, 0.74781567
1565633730639, 9.981657, 8.571775, -4.1170387, 3.0344899, 2.0265799, -0.18748654, -1.8833876, 0.72437984
1565633730640, 10.339051, 9.08431, -4.150569, 2.672842, 1.9297597, -0.17044231, -1.7960359, 0.6849651
1565633730649, 10.619236, 9.465117, -4.3086405, 2.1483326, 1.7714566, -0.19600865, -1.6383767, 0.644485
1565633730650, 10.752601, 9.72378, -4.3421707, 1.4873072, 1.6303855, -0.2428803, -1.4956313, 0.6018744
1565633730659, 10.634199, 9.673484, -4.3086405, 0.97237796, 1.5101141, -0.30253512, -1.3635385, 0.57417756
1565633730660, 10.459643, 9.568104, -4.1888895, 0.5556446, 1.4221599, -0.3920173, -1.2516857, 0.5496765
1565633730672, 10.55034, 9.702225, -4.138594, 0.2203418, 1.3641567, -0.48363006, -1.164334, 0.5209143
1565633730673, 10.540384, 9.644744, -4.2511597, -0.07903565, 1.2907124, -0.5795039, -1.0450244, 0.4878911
1565633730680, 10.471178, 9.520203, -4.3373804, -0.44547364, 1.2756376, -0.7030745, -0.94488955, 0.49002165
1565633730680, 10.428311, 9.477093, -4.3301954, -0.42870852, 1.2712158, -0.8117315, -0.8522116, 0.48043427
1565633730690, 10.507145, 9.553733, -4.3565407, -0.38320315, 1.3068902, -0.922519, -0.79255676, 0.47830373
1565633730690, 10.456281, 9.501043, -4.366121, -0.031135255, 1.3430417, -1.0120013, -0.7435546, 0.47617322
1565633730700, 10.740684, 9.75252, -4.488267, 0.32572266, 1.3958371, -1.0940266, -0.72437984, 0.47617322
1565633730700, 10.708371, 9.699829, -4.4691067, 0.7807764, 1.4261388, -1.1462245, -0.7030745, 0.47510794
1565633730710, 11.038989, 9.915381, -4.6966333, 1.219065, 1.4259356, -1.1653993, -0.680704, 0.46019423
1565633730710, 11.318906, 10.128538, -4.6654983, 1.9399658, 1.4089181, -1.1590078, -0.6743124, 0.43249738
1565633730720, 11.564053, 10.322535, -4.6199927, 2.4141798, 1.3884891, -1.1387677, -0.6945524, 0.38562572
1565633730721, 12.0222845, 10.700948, -4.7229786, 2.7782228, 1.3318571, -1.0908308, -0.6849651, 0.3387541
1565633730730, 12.412845, 10.952425, -4.976851, 3.05844, 1.2644402, -1.0407634, -0.6668556, 0.26631612
1565633730731, 12.514556, 11.00751, -4.9313455, 3.3362625, 1.1957023, -0.9864349, -0.6402239, 0.21624869
1565633730740, 12.293046, 10.734478, -4.9002104, 3.4464333, 1.1209488, -0.9321064, -0.6040049, 0.15126756
1565633730741, 12.120047, 10.617122, -4.718189, 3.4512234, 1.0423824, -0.8628642, -0.5752428, 0.10546118
1565633730750, 12.003393, 10.451866, -4.8259645, 3.3985329, 0.9919992, -0.8341021, -0.5305017, 0.083090626
1565633730751, 11.785264, 10.281819, -4.9002104, 3.027305, 0.94316155, -0.8127968, -0.47510794, 0.056459017
1565633730760, 11.506047, 10.075848, -4.8139896, 2.7734327, 0.89674646, -0.7819041, -0.43782368, 0.033023197
1565633730761, 11.167531, 9.812395, -4.624783, 2.6536818, 0.89134884, -0.7819041, -0.42717105, 0.025566347
1565633730771, 10.873006, 9.637559, -4.3565407, 2.5219557, 0.8895143, -0.77444726, -0.43675843, 0.026631612
1565633730771, 10.757269, 9.627979, -4.150569, 2.4069948, 0.8885832, -0.7616641, -0.45699844, 0.024501082
1565633730781, 10.84221, 9.74773, -4.129014, 2.3423293, 0.8975104, -0.7520767, -0.4889564, 0.02876214
1565633730782, 10.812196, 9.788445, -3.9781277, 2.2944288, 0.9257908, -0.75101143, -0.5411543, 0.014913702
1565633730791, 10.744242, 9.800421, -3.8344264, 2.1650977, 0.96449035, -0.7595336, -0.5944176, -0.004261058
1565633730792, 10.860908, 10.042317, -3.6236646, 1.9950514, 1.0079118, -0.757403, -0.664725, -0.01917476
1565633730801, 11.051893, 10.28661, -3.6691701, 1.6932789, 1.0445786, -0.77125144, -0.7030745, -0.04474111
1565633730801, 11.189003, 10.442286, -3.6404297, 1.7028589, 1.0759176, -0.773382, -0.7456851, -0.058589544
1565633730811, 11.271608, 10.475816, -3.7242556, 1.8537452, 1.094541, -0.76272935, -0.78083885, -0.080960095
1565633730812, 11.37036, 10.597961, -3.558999, 2.074087, 1.1103694, -0.7520767, -0.8117315, -0.09161274
1565633730821, 11.213678, 10.44468, -3.432063, 2.208208, 1.1039321, -0.7190535, -0.829841, -0.113983296
1565633730822, 11.207375, 10.403965, -3.3386574, 2.4932153, 1.081348, -0.6860303, -0.82877576, -0.10865697
1565633730831, 11.423212, 10.578802, -3.319497, 2.7494826, 1.0314544, -0.6380934, -0.80107886, -0.12250541
1565633730832, 11.671606, 10.849439, -3.3434474, 2.7087672, 0.9621762, -0.5858955, -0.7520767, -0.12996227
1565633730842, 11.874929, 11.086546, -3.3218923, 2.6584718, 0.8896259, -0.53795856, -0.69029135, -0.15978967
1565633730842, 11.995975, 11.266172, -3.3458424, 2.4045997, 0.83350873, -0.49854377, -0.6423545, -0.18322548
1565633730852, 12.118108, 11.438614, -3.1422658, 2.4764502, 0.9085419, -0.38242993, -0.7765778, -0.2759035
1565633730853, 13.398089, 12.581038, -2.792593, 3.66438, 1.0187815, -0.37923414, -0.87032104, -0.36964676
1565633730861, 13.293478, 12.676839, -3.7458107, 1.4082716, 1.0183221, -0.44528055, -0.8032094, -0.43995422
1565633730862, 12.269438, 11.548784, -4.138594, -0.19160157, 0.8735623, -0.4676511, -0.5784386, -0.45806372
1565633730872, 10.935009, 10.473421, -3.1111305, -0.45026368, 0.8034241, -0.515588, -0.4346279, -0.43675843
1565633730872, 10.577078, 10.291399, -2.440525, 0.07424561, 0.80198854, -0.5432849, -0.4261058, -0.4079963
1565633730882, 10.125456, 9.833951, -2.3974147, 0.26584718, 0.8307786, -0.5816344, -0.45167214, -0.38456047
1565633730883, 10.033523, 9.644744, -2.7638526, 0.10777588, 0.8229201, -0.60080916, -0.45593318, -0.3291667
1565633730892, 10.440133, 9.984837, -3.04886, -0.06227051, 0.8373893, -0.62744075, -0.4612595, -0.30786142
1565633730893, 10.604532, 10.147698, -3.0704153, -0.22992188, 0.8618411, -0.6540724, -0.47404268, -0.30040458
1565633730902, 10.734382, 10.322535, -2.931504, -0.2802173, 0.9068098, -0.67537767, -0.5070659, -0.330232
1565633730903, 10.958032, 10.595567, -2.794988, -0.021555176, 0.94212085, -0.68176925, -0.5550028, -0.3387541
1565633730912, 11.055487, 10.708133, -2.7494826, 0.0047900393, 0.97243184, -0.67537767, -0.5837649, -0.38562572
1565633730913, 11.067366, 10.679393, -2.9027638, -0.10538086, 1.0338583, -0.6743124, -0.660464, -0.42184472
1565633730922, 10.769374, 10.346485, -2.9841945, -0.15567628, 1.0794761, -0.6711166, -0.72651035, -0.43249738
1565633730923, 10.299409, 9.877061, -2.9027638, -0.30895755, 1.1453996, -0.65726817, -0.84155893, -0.41438788
1565633730933, 9.849921, 9.412427, -2.9027638, -0.033530276, 1.2294171, -0.6348976, -0.9800433, -0.38456047
1565633730933, 9.735667, 9.299861, -2.8740237, 0.18920656, 1.3701682, -0.61678815, -1.1728562, -0.34834146
1565633730942, 9.667209, 9.168135, -3.0344899, 0.4382886, 1.513541, -0.56672066, -1.361408, -0.34088463
1565633730943, 10.313534, 9.766891, -3.2260914, 0.7544312, 1.5731454, -0.5251754, -1.4434333, -0.33981937
1565633730957, 11.174705, 10.667418, -3.1949563, 0.93405765, 1.5539988, -0.47723848, -1.4274544, -0.386691
1565633730957, 12.0073185, 11.53202, -3.187771, 1.0130934, 1.4757636, -0.41758367, -1.3337111, -0.47404268
1565633730964, 12.372433, 11.934382, -3.187771, 0.69695073, 1.3736184, -0.4133226, -1.1845741, -0.5592638
1565633730965, 12.152522, 11.718831, -3.2117214, -0.1939966, 1.2539755, -0.43036684, -1.0098706, -0.6061355
1565633730973, 11.625174, 11.175161, -3.182981, -0.35925296, 1.1605307, -0.45380265, -0.8628642, -0.6295713
1565633730973, 11.044867, 10.557246, -3.1398706, -0.8214917, 1.1113976, -0.49428272, -0.7701862, -0.6306366
1565633730984, 10.714746, 10.166859, -3.2093263, -1.0681788, 1.0766941, -0.5400891, -0.71798825, -0.5933523
1565633730985, 10.203677, 9.594449, -3.1326857, -1.4992822, 1.0726552, -0.60933125, -0.68389976, -0.5581986
1565633730997, 10.079199, 9.3381815, -3.293152, -1.8824854, 1.0607, -0.664725, -0.65194184, -0.50813115
1565633730998, 10.357467, 9.513018, -3.5829494, -1.9854712, 1.0778724, -0.7126619, -0.65513766, -0.47404268
1565633731007, 10.259151, 9.457932, -3.6092947, -1.6645386, 1.0899947, -0.73290193, -0.660464, -0.46339005
1565633731008, 10.354069, 9.553733, -3.772156, -1.3052857, 1.0840489, -0.721184, -0.66579026, -0.46019423
1565633731018, 10.265356, 9.503438, -3.7290456, -1.0753639, 1.0794935, -0.6860303, -0.69348717, -0.46232477
1565633731018, 10.230325, 9.431587, -3.8823268, -0.7951465, 1.0734283, -0.6380934, -0.7275756, -0.4644553
1565633731027, 10.20797, 9.362132, -4.016448, -0.6490503, 1.0939234, -0.5699165, -0.8000136, -0.48149952
1565633731028, 9.991801, 9.057964, -4.184099, -0.53169435, 1.1165166, -0.49747851, -0.8681905, -0.49534798
1565633731035, 9.554952, 8.557405, -4.2343946, -0.37122804, 1.1670715, -0.4293016, -0.96939063, -0.4878911
1565633731035, 9.285139, 8.222102, -4.287085, -0.48139894, 1.2125727, -0.38136467, -1.0578076, -0.45380265
1565633731044, 9.140596, 7.975415, -4.394861, -0.7927515, 1.2676388, -0.35792887, -1.1345067, -0.43782368
1565633731045, 8.94011, 7.553892, -4.5840673, -1.3603711, 1.3202838, -0.3653857, -1.2080098, -0.38775626
1565633731058, 8.608504, 7.079678, -4.5864625, -1.7172291, 1.3905945, -0.39627838, -1.2953615, -0.314253
1565633731059, 8.515422, 6.945557, -4.5577226, -1.8705103, 1.429045, -0.43036684, -1.3401027, -0.24714136
1565633731067, 8.537492, 7.0916533, -4.430786, -1.7220191, 1.4164, -0.479369, -1.3198626, -0.18535602
1565633731068, 8.870502, 7.424561, -4.5553274, -1.6765138, 1.3798913, -0.5091964, -1.2751216, -0.13741912
1565633731075, 9.024451, 7.7359133, -4.4691067, -1.2741505, 1.2891433, -0.5294364, -1.1696603, -0.11611383
1565633731076, 9.394429, 8.186177, -4.4499464, -1.1999048, 1.1995071, -0.5422196, -1.0652645, -0.10013486
1565633731089, 9.661422, 8.51669, -4.4499464, -1.0035132, 1.0598102, -0.55287224, -0.90014845, -0.08522116
1565633731090, 10.251444, 9.201666, -4.3541455, -1.2094849, 0.91162306, -0.5795039, -0.6956177, -0.10652645
1565633731095, 10.769202, 9.678274, -4.485872, -1.477727, 0.8051405, -0.6146576, -0.5006743, -0.14061491
1565633731096, 10.604342, 9.553733, -4.25595, -1.7507594, 0.7598569, -0.67218184, -0.32384038, -0.1438107
1565633731105, 10.221054, 9.08431, -4.24637, -1.9782863, 0.7606719, -0.7275756, -0.17257284, -0.13954964
1565633731107, 9.941872, 8.813672, -4.2751102, -1.698069, 0.7729307, -0.7616641, -0.08522116, -0.10013486
1565633731116, 9.417286, 8.298743, -4.263135, -1.2813355, 0.78049946, -0.77444726, -0.083090626, -0.05006743
1565633731117, 9.018619, 8.004155, -4.0882983, -0.7448511, 0.75341845, -0.7435546, -0.12144015, 0.004261058
1565633731125, 8.771314, 7.783814, -4.0356083, -0.24908204, 0.72703576, -0.69668293, -0.19600865, 0.06924219
1565633731127, 8.611345, 7.661668, -3.9302273, 0.086220704, 0.74402905, -0.6508766, -0.3323625, 0.13954964
1565633731136, 8.487965, 7.6377177, -3.7027004, 0.028740235, 0.7608129, -0.58696073, -0.44847634, 0.18216023
1565633731137, 8.848893, 7.94907, -3.887117, 0.07424561, 0.7720118, -0.5187838, -0.52837116, 0.21837921
1565633731147, 9.011051, 8.1071415, -3.9182522, 0.34727785, 0.80683005, -0.43249738, -0.6295713, 0.25992453
1565633731148, 8.990395, 8.176597, -3.7194655, 0.36883304, 0.8484649, -0.34301516, -0.7190535, 0.29188246
1565633731158, 8.947032, 8.178992, -3.6164796, 0.27303225, 0.91582084, -0.28122982, -0.809601, 0.32277513
1565633731159, 9.209053, 8.466394, -3.6188745, -0.17483643, 0.95188457, -0.21731395, -0.8671253, 0.3270362
1565633731169, 9.580601, 8.763377, -3.8464015, -0.44307864, 0.9325835, -0.17150758, -0.850081, 0.34301516
1565633731170, 9.056011, 8.195757, -3.7074904, -1.0466236, 0.9327563, -0.13422333, -0.83516735, 0.3930826
1565633731178, 8.929666, 8.1071415, -3.4536183, -1.4441968, 0.91408, -0.12676647, -0.78936094, 0.44315
1565633731180, 9.054613, 8.143066, -3.4488282, -1.9447559, 0.8770083, -0.12676647, -0.7275756, 0.47297743
1565633731191, 9.286072, 8.260423, -3.6236646, -2.2058132, 0.84680617, -0.17576863, -0.6508766, 0.5123922
1565633731192, 9.63316, 8.51669, -3.7074904, -2.5530908, 0.82889146, -0.22370553, -0.58269966, 0.5454154
1565633731197, 9.796002, 8.741821, -3.671565, -2.4620802, 0.7933968, -0.27483824, -0.4910869, 0.5592638
1565633731199, 9.993253, 8.988508, -3.5063088, -2.6033864, 0.74580985, -0.3174488, -0.36645097, 0.56672066
1565633731209, 10.249008, 9.378897, -3.412903, -2.3303542, 0.6804672, -0.34194988, -0.19813919, 0.5539375
1565633731211, 10.557413, 9.730965, -3.5637891, -2.0166066, 0.6417924, -0.36325517, -0.027696876, 0.52837116
1565633731218, 10.468551, 9.754915, -3.4631984, -1.5615528, 0.6284022, -0.3472762, 0.12250541, 0.5091964
1565633731220, 10.410734, 9.72378, -3.5110989, -1.22625, 0.63420194, -0.314253, 0.257794, 0.48682585
1565633731229, 10.394119, 9.73815, -3.5015187, -0.97237796, 0.61637676, -0.26312032, 0.3206446, 0.45593318
1565633731231, 10.246261, 9.616004, -3.432063, -0.859812, 0.5996625, -0.23116238, 0.3355583, 0.43995422
1565633731239, 10.215966, 9.546548, -3.4655933, -1.104104, 0.55136055, -0.20026971, 0.30360037, 0.41438788
1565633731240, 10.283189, 9.541759, -3.6452198, -1.1879297, 0.50495446, -0.18002969, 0.24927188, 0.40053943
1565633731249, 10.343637, 9.529783, -3.7625759, -1.4202466, 0.4297243, -0.165116, 0.16192019, 0.36218992
1565633731251, 10.539359, 9.800421, -3.5997145, -1.4394068, 0.35246733, -0.14061491, 0.060720075, 0.3174488
1565633731257, 10.699715, 9.924961, -3.671565, -1.5807129, 0.28808066, -0.10439592, -0.0479369, 0.26418558
1565633731259, 10.979699, 10.166859, -3.786526, -1.6884888, 0.26920015, -0.068176925, -0.15126756, 0.21198763
1565633731270, 10.852803, 9.980047, -3.8224514, -1.8896705, 0.31658792, -0.043675844, -0.25672874, 0.18002969
1565633731272, 10.952433, 9.996812, -3.9493873, -2.1028273, 0.36220402, -0.03089267, -0.3323625, 0.14061491
1565633731278, 11.096281, 10.037527, -4.0763235, -2.3998096, 0.3905237, -0.024501082, -0.36964676, 0.12357068
1565633731280, 10.996544, 9.764495, -4.095484, -2.9674294, 0.3779888, -0.05752428, -0.35473305, 0.11717909
1565633731288, 11.071511, 9.620794, -4.282295, -3.417693, 0.34111923, -0.08948222, -0.30466563, 0.12463594
1565633731290, 10.967898, 9.448353, -4.232, -3.6212697, 0.30492997, -0.14594123, -0.22583607, 0.1438107
1565633731301, 10.778858, 9.316627, -4.148174, -3.4895437, 0.29267645, -0.20133498, -0.15126756, 0.14913702
1565633731303, 10.415807, 9.060359, -4.0835085, -3.1183155, 0.29120713, -0.22796659, -0.06711166, 0.16831179
1565633731308, 10.44342, 9.211246, -4.061953, -2.7782228, 0.30678508, -0.24714136, 0.037284255, 0.17789917
1565633731310, 10.54034, 9.357342, -4.157754, -2.5004005, 0.31458867, -0.24607609, 0.13315806, 0.1438107
1565633731323, 10.673789, 9.546548, -4.1314087, -2.3926246, 0.3535234, -0.25885928, 0.21092236, 0.11611383
1565633731324, 10.894435, 9.7812605, -4.184099, -2.3471193, 0.38874125, -0.2545982, 0.28549087, 0.06924219
1565633731329, 10.851517, 9.74294, -4.2799, -2.1243825, 0.41544494, -0.23116238, 0.34408042, 0.027696876
1565633731331, 10.417151, 9.402847, -3.9948928, -2.0357666, 0.45074034, -0.22050974, 0.3930826, 0.0053263223
1565633731339, 10.226826, 9.15137, -4.1002736, -2.0070264, 0.46891728, -0.19068234, 0.4282363, -0.011717909
1565633731342, 10.246009, 9.017249, -4.402046, -2.071692, 0.49011773, -0.17150758, 0.45912898, -0.0010652645
1565633731348, 10.300782, 9.002879, -4.615203, -1.9375709, 0.51341546, -0.13102753, 0.49641323, 0.0010652645
1565633731349, 10.404783, 9.15616, -4.615203, -1.7675245, 0.5222502, -0.08948222, 0.51452273, -0.002130529
1565633731358, 10.722011, 9.417217, -4.751719, -1.9232007, 0.5114035, -0.06178534, 0.5070659, -0.024501082
1565633731359, 11.04196, 9.783655, -4.7253737, -1.9687061, 0.5304044, -0.033023197, 0.52624065, -0.05752428
1565633731368, 11.603328, 10.253079, -4.9385304, -2.2632935, 0.5454914, -0.018109497, 0.5305017, -0.1257012
1565633731369, 11.95012, 10.494976, -5.151687, -2.4740553, 0.54832983, -0.014913702, 0.51771855, -0.18002969
1565633731380, 11.965481, 10.442286, -5.2594633, -2.543511, 0.5613529, -0.0127831735, 0.5006743, -0.25353295
1565633731381, 11.702599, 10.066268, -5.362449, -2.6201515, 0.5573583, -0.010652645, 0.47404268, -0.29294774
1565633731389, 11.340034, 9.711804, -5.3073635, -2.4716604, 0.5224077, -0.014913702, 0.41864893, -0.3121225
1565633731390, 10.8707905, 9.153765, -5.3217335, -2.4620802, 0.48922786, -0.00958738, 0.36751625, -0.32277513
1565633731399, 10.517881, 8.741821, -5.3073635, -2.4572902, 0.46193925, -0.039414786, 0.32277513, -0.32810146
1565633731399, 10.189633, 8.363408, -5.376819, -2.2297633, 0.4317384, -0.03834952, 0.28655612, -0.3206446
1565633731409, 10.027227, 8.198153, -5.4127445, -2.0094216, 0.40833408, -0.023435818, 0.26844665, -0.30679616
1565633731410, 9.734454, 7.9706254, -5.3217335, -1.705254, 0.40096137, 0.0, 0.27377295, -0.29294774
1565633731419, 9.373176, 7.6449027, -5.249883, -1.3603711, 0.38388118, 0.036218993, 0.28016454, -0.25992453
1565633731421, 9.413917, 7.685618, -5.257068, -1.3843213, 0.3905455, 0.06178534, 0.30786142, -0.23222765
1565633731430, 9.403513, 7.6664577, -5.2115626, -1.5783179, 0.38010392, 0.08841695, 0.30360037, -0.21092236
1565633731431, 9.296773, 7.561077, -5.120552, -1.7435743, 0.35145816, 0.08628642, 0.28655612, -0.18429075
1565633731438, 9.385061, 7.6425076, -5.0918117, -1.9351759, 0.33131438, 0.07989483, 0.2759035, -0.165116
1565633731440, 9.586539, 7.8724294, -5.000801, -2.2177882, 0.30098575, 0.066046394, 0.257794, -0.14061491
1565633731450, 9.880891, 8.207732, -4.89542, -2.5099807, 0.27219954, 0.049002163, 0.24074976, -0.11717909
1565633731452, 10.110815, 8.533455, -4.749324, -2.6177564, 0.25450012, 0.0127831735, 0.23222765, -0.10333065
1565633731460, 10.393314, 8.8951025, -4.639153, -2.7159522, 0.2392011, 0.008522116, 0.21944448, -0.094808534
1565633731462, 10.760062, 9.479487, -4.4834766, -2.411785, 0.23104945, 0.00958738, 0.21411815, -0.08628642
1565633731470, 11.076081, 9.996812, -4.296665, -2.069297, 0.24629503, 0.034088463, 0.21731395, -0.1107875
1565633731471, 11.550426, 10.638678, -4.1002736, -1.8489552, 0.26022777, 0.06924219, 0.20985709, -0.13741912
1565633731480, 12.034109, 11.261382, -3.8128712, -1.8609302, 0.30162978, 0.10546118, 0.20559604, -0.19387813
1565633731481, 12.570071, 11.876903, -3.6021094, -1.9926564, 0.34840825, 0.12357068, 0.1949434, -0.2609898
1565633731492, 12.806922, 12.135565, -3.5781593, -1.9854712, 0.41288307, 0.14913702, 0.17896444, -0.34088463
1565633731494, 12.8573475, 12.279265, -3.2452517, -1.9998415, 0.48926613, 0.17044231, 0.18961707, -0.41758367
1565633731499, 12.863483, 12.305611, -3.173401, -1.9926564, 0.5519314, 0.18535602, 0.1736381, -0.49002165
1565633731501, 12.857647, 12.310401, -3.0871804, -2.059717, 0.62374765, 0.21518342, 0.14274544, -0.567786
1565633731510, 12.62995, 12.149935, -2.8788135, -1.8992506, 0.6997547, 0.21944448, 0.10439592, -0.6562029
1565633731514, 12.410608, 11.948753, -2.7446926, -1.9279908, 0.76292205, 0.25033715, 0.07350325, -0.716923
1565633731520, 11.959771, 11.55597, -2.560276, -1.7148341, 0.8216974, 0.27696875, 0.04474111, -0.77231675
1565633731522, 11.526794, 11.191927, -2.3758595, -1.4010864, 0.8743174, 0.31318775, 0.022370555, -0.8159926
1565633731531, 11.161052, 10.830278, -2.2608986, -1.4705421, 0.92525375, 0.32277513, -0.002130529, -0.8671253
1565633731533, 10.627252, 10.274634, -2.2537134, -1.5136524, 0.9573036, 0.33662358, -0.022370555, -0.89588743
1565633731541, 10.285805, 9.922566, -2.1339624, -1.6693287, 1.0069313, 0.34940675, -0.03195793, -0.9438243
1565633731543, 9.988688, 9.544153, -2.2944288, -1.8489552, 1.0234115, 0.34194988, -0.03195793, -0.96406436
1565633731550, 9.395098, 8.938213, -2.196233, -1.8848804, 1.0438884, 0.34301516, -0.033023197, -0.9853696
1565633731551, 9.018343, 8.466394, -2.3255641, -2.059717, 1.0362642, 0.3291667, -0.02876214, -0.9821738
1565633731560, 8.585734, 8.01613, -2.2920337, -2.0501368, 1.0207462, 0.3057309, -0.02130529, -0.9736517
1565633731561, 8.192407, 7.6089773, -2.299219, -1.9830762, 1.0190684, 0.28655612, -0.008522116, -0.9779128
1565633731570, 7.862429, 7.199429, -2.4189699, -2.0333717, 0.99054587, 0.2609898, 0.002130529, -0.9555422
1565633731572, 7.549858, 6.8808913, -2.5075855, -1.8345851, 0.9489097, 0.24927188, 0.03089267, -0.9150622
1565633731581, 7.190722, 6.473738, -2.7015822, -1.5807129, 0.9317569, 0.24820662, 0.0628506, -0.89588743
1565633731582, 6.7502675, 5.975574, -2.7830129, -1.453777, 0.88112444, 0.24607609, 0.096939065, -0.8404937
1565633731591, 6.7349753, 5.9252787, -2.9722195, -1.1903248, 0.84590983, 0.26738137, 0.11930962, -0.793622
1565633731593, 6.694932, 5.829478, -3.0823903, -1.1567944, 0.83243793, 0.27164245, 0.16618125, -0.76912093
1565633731601, 6.81278, 5.8270826, -3.2428565, -1.3939015, 0.8102238, 0.28549087, 0.20985709, -0.7286409
1565633731602, 6.862412, 5.8031325, -3.3578174, -1.463357, 0.8024814, 0.28655612, 0.24501082, -0.70840085
1565633731611, 7.010503, 5.9468336, -3.412903, -1.4609619, 0.8230497, 0.28868666, 0.29614353, -0.71159667
1565633731612, 7.085818, 5.9228835, -3.5757644, -1.5304176, 0.8030851, 0.3089267, 0.32810146, -0.664725
1565633731622, 7.1451163, 5.951624, -3.6164796, -1.5974782, 0.7921737, 0.32597092, 0.33981937, -0.63702816
1565633731623, 7.1390095, 5.865403, -3.7410207, -1.6022681, 0.77003294, 0.3323625, 0.3153183, -0.61891866
1565633731632, 7.390722, 5.9396486, -4.018843, -1.7866846, 0.71942663, 0.3270362, 0.24714136, -0.59122175
1565633731633, 7.7046437, 5.992339, -4.2751102, -2.2752686, 0.6530175, 0.30040458, 0.17470337, -0.55287224
1565633731641, 8.23882, 6.2797413, -4.591253, -2.7135572, 0.59025264, 0.26205507, 0.08522116, -0.5219796
1565633731643, 8.737578, 6.70845, -4.8834453, -2.7375073, 0.5534159, 0.23116238, 0.033023197, -0.50173956
1565633731657, 9.037146, 6.9958525, -5.096602, -2.5985963, 0.51695186, 0.2034655, 0.010652645, -0.47510794
1565633731658, 9.4350605, 7.4844365, -5.199588, -2.44292, 0.4976883, 0.18642128, 0.034088463, -0.46019423
1565633731661, 9.721827, 7.8724294, -5.223538, -2.2920337, 0.50071055, 0.17896444, 0.083090626, -0.46019423
1565633731663, 9.956327, 8.195757, -5.247488, -2.1028273, 0.5067189, 0.17150758, 0.16192019, -0.44847634
1565633731673, 10.252057, 8.52627, -5.352869, -1.9375709, 0.55729014, 0.17150758, 0.26525086, -0.45912898
1565633731674, 10.357522, 8.713081, -5.352869, -1.6453785, 0.62200046, 0.19707392, 0.3568636, -0.46978164
1565633731682, 10.324922, 8.701106, -5.4175344, -1.2430152, 0.65818346, 0.19707392, 0.406931, -0.47830373
1565633731683, 10.25052, 8.576566, -5.5061502, -1.094524, 0.7076764, 0.22796659, 0.45912898, -0.4878911
1565633731692, 9.973762, 8.281978, -5.4366946, -1.1520045, 0.724039, 0.24181503, 0.4857606, -0.479369
1565633731694, 9.691059, 7.8580594, -5.5468655, -1.1831397, 0.72748595, 0.27057716, 0.49321744, -0.4612595
1565633731702, 9.465363, 7.553892, -5.5708156, -1.223855, 0.7342331, 0.29614353, 0.49641323, -0.4527374
1565633731703, 9.21314, 7.2808595, -5.494175, -1.2981006, 0.7217636, 0.3270362, 0.47830373, -0.43036684
1565633731712, 9.090321, 7.055728, -5.5875807, -1.2765454, 0.6984383, 0.36112466, 0.45593318, -0.386691
1565633731714, 9.194015, 7.077283, -5.702542, -1.3867164, 0.671344, 0.38775626, 0.41864893, -0.3536678
1565633731723, 9.116537, 6.952742, -5.6714063, -1.6142433, 0.65490896, 0.41438788, 0.40053943, -0.3110572
1565633731725, 9.192204, 6.9000516, -5.757627, -1.9327809, 0.61721116, 0.4250405, 0.36432046, -0.25992453
1565633731733, 9.069749, 6.744375, -5.621111, -2.2752686, 0.5605164, 0.41438788, 0.32384038, -0.19387813
1565633731735, 8.95541, 6.495293, -5.5301003, -2.7255323, 0.48918843, 0.37710363, 0.29614353, -0.096939065
1565633731743, 8.849471, 6.2845316, -5.4199295, -3.0728102, 0.41332397, 0.314253, 0.26844665, -0.004261058
1565633731745, 9.107566, 6.480923, -5.3097587, -3.5709743, 0.37542677, 0.23648871, 0.27057716, 0.10865697
1565633731753, 9.643665, 7.0078273, -5.4127445, -3.8200562, 0.39780033, 0.1587244, 0.28975195, 0.221575
1565633731755, 10.248216, 7.671248, -5.343289, -4.1984696, 0.4686522, 0.0628506, 0.34194988, 0.314253
1565633731764, 10.952326, 8.485555, -5.3313136, -4.4188113, 0.55002624, -0.058589544, 0.38242993, 0.39095205
1565633731766, 11.735384, 9.424402, -5.1852174, -4.6918435, 0.64046764, -0.17470337, 0.43249738, 0.43888897
1565633731774, 12.588733, 10.502161, -5.046306, -4.766089, 0.7242827, -0.30466563, 0.47723848, 0.45167214
1565633731775, 13.238098, 11.405084, -4.9505057, -4.5457473, 0.80906886, -0.41225734, 0.5368933, 0.44315
1565633731784, 13.6650305, 12.154725, -4.7876444, -4.009263, 0.87014824, -0.4878911, 0.5901565, 0.4133226
1565633731785, 13.868886, 12.616963, -4.7253737, -3.290757, 0.9040079, -0.5411543, 0.6135923, 0.38456047
1565633731794, 13.805465, 12.772639, -4.648733, -2.4165747, 0.9091981, -0.5486112, 0.63702816, 0.34621096
1565633731796, 13.602105, 12.772639, -4.3637257, -1.6836988, 0.8693087, -0.52837116, 0.6178534, 0.30786142
1565633731804, 13.225431, 12.4684725, -4.296665, -0.99393314, 0.8110742, -0.4878911, 0.5816344, 0.28549087
1565633731805, 12.833339, 12.173884, -4.0571632, -0.17483643, 0.72372234, -0.41864893, 0.5390238, 0.24074976
1565633731814, 12.668817, 12.082874, -3.7937112, 0.33290774, 0.6224545, -0.32597092, 0.47723848, 0.23116238
1565633731815, 12.315817, 11.759546, -3.5542092, 0.87178713, 0.5091474, -0.22370553, 0.4111921, 0.20026971
1565633731823, 11.988329, 11.4625635, -3.319497, 1.1448194, 0.40084812, -0.11930962, 0.33768883, 0.18002969
1565633731825, 11.532127, 11.038646, -3.056045, 1.341211, 0.31395316, -0.007456851, 0.2695119, 0.16085494
1565633731834, 11.04184, 10.619517, -2.7375073, 1.2861255, 0.27161738, 0.098004326, 0.20240025, 0.15233281
1565633731835, 10.741528, 10.399176, -2.459685, 1.089734, 0.29275593, 0.19813919, 0.15659387, 0.14807177
1565633731844, 10.379817, 10.106983, -2.2968237, 0.5604346, 0.3272651, 0.26418558, 0.12144015, 0.15020229
1565633731845, 9.952212, 9.745335, -2.0166066, 0.09101075, 0.38099256, 0.33129725, 0.07243799, 0.1736381
1565633731857, 9.611455, 9.431587, -1.8106349, -0.38320315, 0.41634402, 0.37071204, 0.034088463, 0.18642128
1565633731858, 9.382397, 9.201666, -1.6453785, -0.80712163, 0.4495782, 0.39414784, -0.002130529, 0.21624869
1565633731864, 9.330867, 9.108259, -1.5352076, -1.3220508, 0.4791713, 0.4048005, -0.04474111, 0.25246766
1565633731867, 9.324623, 9.026829, -1.3220508, -1.9279908, 0.4924069, 0.39840892, -0.053263225, 0.28442562
1565633731873, 9.36456, 8.990904, -1.2406201, -2.3064039, 0.5132817, 0.3898868, -0.08522116, 0.32277513
1565633731875, 9.367425, 8.911868, -1.1280543, -2.6560767, 0.51735455, 0.35153726, -0.10652645, 0.36432046
1565633731883, 9.55002, 8.928633, -0.9508228, -3.2524366, 0.5104974, 0.29933932, -0.1107875, 0.39840892
1565633731884, 9.812991, 9.134604, -0.852627, -3.4823585, 0.48128974, 0.2247708, -0.10972224, 0.4111921
1565633731894, 10.185568, 9.383687, -0.72569096, -3.894302, 0.4507642, 0.12996227, -0.08628642, 0.42290998
1565633731895, 10.596844, 9.745335, -0.6562354, -4.1098537, 0.42588866, 0.029827405, -0.040480047, 0.42290998
1565633731904, 10.813211, 10.0063925, -0.613125, -4.0523734, 0.41215274, -0.06391586, 0.013848438, 0.406931
1565633731905, 11.063995, 10.317744, -0.6730005, -3.9374123, 0.4263547, -0.1587244, 0.07350325, 0.3888215
1565633731914, 11.19098, 10.535691, -0.60594, -3.7242556, 0.46455914, -0.25992453, 0.12144015, 0.3653857
1565633731914, 11.308405, 10.765614, -0.7161109, -3.3865578, 0.48775852, -0.3323625, 0.16937704, 0.314253
1565633731925, 11.257314, 10.882969, -0.88376224, -2.7399025, 0.5191555, -0.3749731, 0.22050974, 0.28336033
1565633731926, 11.072321, 10.861414, -0.977168, -1.9160157, 0.52709174, -0.38242993, 0.26844665, 0.24394555
1565633731934, 10.804939, 10.665023, -1.1591895, -1.2885206, 0.53560984, -0.36964676, 0.314253, 0.22690132
1565633731935, 10.489382, 10.37283, -1.3483961, -0.7831714, 0.52800596, -0.3472762, 0.33449304, 0.21518342
1565633731945, 10.341611, 10.207574, -1.6381935, -0.26584718, 0.48919657, -0.28975195, 0.330232, 0.21518342
1565633731946, 10.242391, 10.063872, -1.8872755, 0.25147706, 0.4213993, -0.2514024, 0.27483824, 0.19707392
1565633731957, 10.286946, 10.047108, -2.186653, 0.30895755, 0.34224844, -0.18855181, 0.21731395, 0.18535602
1565633731959, 10.327976, 10.013577, -2.44292, 0.65384036, 0.27379784, -0.14274544, 0.15020229, 0.17896444
1565633731965, 10.320043, 9.958491, -2.6177564, 0.69216067, 0.18636344, -0.07563378, 0.06178534, 0.1587244
1565633731967, 10.397216, 9.987232, -2.7446926, 0.90771246, 0.15191509, -0.013848438, -0.002130529, 0.15126756
1565633731976, 10.553514, 10.061478, -3.04407, 0.9364527, 0.16371143, 0.07669904, -0.056459017, 0.13315806
1565633731977, 10.418672, 9.915381, -2.9674294, 1.1951149, 0.20748606, 0.14061491, -0.09374327, 0.12037488
1565633731987, 10.292581, 9.759705, -3.0776002, 1.101709, 0.26567832, 0.21198763, -0.12144015, 0.10439592
1565633731988, 10.18919, 9.632769, -3.1278956, 1.1160791, 0.3260214, 0.27483824, -0.13848437, 0.10759171
1565633731996, 10.041132, 9.429193, -3.2572267, 1.1424243, 0.38566843, 0.33981937, -0.14487597, 0.1107875
1565633731998, 9.796176, 9.182506, -3.2596216, 1.0106983, 0.4243458, 0.386691, -0.12357068, 0.12357068
1565633732006, 9.582588, 8.954978, -3.307522, 0.8334668, 0.46931762, 0.43675843, -0.10013486, 0.13954964
1565633732008, 9.330462, 8.657996, -3.3482375, 0.9412427, 0.5135978, 0.47830373, -0.099069595, 0.1587244
1565633732017, 9.051072, 8.411309, -3.2380664, 0.8286768, 0.57503164, 0.52837116, -0.08628642, 0.20985709
1565633732018, 8.8348675, 8.234077, -3.1614258, 0.51013917, 0.5993275, 0.5432849, -0.07456851, 0.24181503
1565633732026, 8.882051, 8.329878, -3.06323, 0.34727785, 0.62770027, 0.551807, -0.07456851, 0.28975195
1565633732028, 8.747738, 8.186177, -3.0823903, 0.09101075, 0.6344998, 0.55287224, -0.09267801, 0.2972088
1565633732036, 8.900765, 8.344249, -3.0943654, -0.14849122, 0.65423286, 0.5571333, -0.112918034, 0.32384038
1565633732037, 9.014235, 8.502319, -2.9817994, -0.27542725, 0.67957693, 0.57098174, -0.15233281, 0.3355583
1565633732046, 9.290442, 8.787327, -2.9937747, -0.364043, 0.6887625, 0.5699165, -0.20133498, 0.330232
1565633732047, 9.385009, 8.878338, -3.0177248, -0.38320315, 0.71914506, 0.5816344, -0.25033715, 0.34088463
1565633732056, 9.585292, 9.14658, -2.8452833, -0.34967285, 0.7422906, 0.5933523, -0.2876214, 0.34088463
1565633732058, 9.77203, 9.311836, -2.9171338, -0.5221143, 0.75332654, 0.5997439, -0.314253, 0.330232
1565633732066, 9.91724, 9.481883, -2.8380983, -0.62510014, 0.76962906, 0.61572284, -0.32490566, 0.32810146
1565633732068, 9.944012, 9.536968, -2.7566676, -0.5748047, 0.78852314, 0.6327671, -0.3472762, 0.3174488
1565633732078, 10.145991, 9.754915, -2.682422, -0.7664063, 0.7992679, 0.6402239, -0.3653857, 0.3089267
1565633732080, 10.23913, 9.857901, -2.6512868, -0.7951465, 0.8055055, 0.6423545, -0.38456047, 0.2972088
1565633732088, 10.263231, 9.8866415, -2.5818312, -0.96040285, 0.81063616, 0.6359629, -0.41225734, 0.2876214
1565633732090, 10.54157, 10.128538, -2.680027, -1.1639795, 0.79729766, 0.61678815, -0.42184472, 0.27803403
1565633732097, 10.687061, 10.32014, -2.4740553, -1.2597803, 0.7834562, 0.59228706, -0.44208476, 0.25992453
1565633732099, 10.840477, 10.442286, -2.5530908, -1.3986914, 0.7481752, 0.5571333, -0.44208476, 0.23222765
1565633732107, 10.882639, 10.504556, -2.411785, -1.5064673, 0.72388226, 0.5294364, -0.43675843, 0.23009712
1565633732110, 11.0025015, 10.614727, -2.3638844, -1.6717237, 0.6629857, 0.47297743, -0.4111921, 0.21624869
1565633732117, 11.018928, 10.607542, -2.440525, -1.7148341, 0.61397225, 0.43995422, -0.36964676, 0.21624869
1565633732119, 10.843884, 10.4494705, -2.3255641, -1.7292042, 0.55407065, 0.38775626, -0.32277513, 0.22903186
1565633732127, 10.838375, 10.447076, -2.308799, -1.7315992, 0.49451452, 0.33981937, -0.2759035, 0.23009712
1565633732129, 10.844782, 10.473421, -2.2489235, -1.6908839, 0.4344947, 0.28868666, -0.23435818, 0.2247708
1565633732137, 10.879786, 10.516531, -2.196233, -1.7172291, 0.37998897, 0.23861924, -0.17896444, 0.23542345
1565633732146, 11.027204, 10.684182, -2.1363575, -1.698069, 0.31772217, 0.17896444, -0.113983296, 0.23648871
1565633732147, 11.1732235, 10.847044, -2.1411476, -1.6118482, 0.2748176, 0.14168017, -0.05006743, 0.23009712
1565633732149, 11.249308, 10.928474, -2.191443, -1.5208374, 0.22472285, 0.096939065, 0.011717909, 0.20240025
1565633732158, 11.581613, 11.299703, -2.090852, -1.4418018, 0.1801809, 0.041545313, 0.07669904, 0.15765914
1565633732160, 11.626625, 11.366763, -2.0860622, -1.2741505, 0.17857404, -0.002130529, 0.128897, 0.12357068
1565633732170, 11.471052, 11.208692, -2.1603076, -1.1328443, 0.21434063, -0.05219796, 0.18961707, 0.08522116
1565633732172, 11.0656595, 10.820699, -2.0980372, -0.97956306, 0.27412507, -0.0777643, 0.25672874, 0.056459017
1565633732178, 10.748068, 10.511742, -2.1483326, -0.6394702, 0.310142, -0.113983296, 0.28442562, 0.0479369
1565633732179, 10.381249, 10.159674, -2.090852, -0.4239185, 0.34207264, -0.12463594, 0.314253, 0.05219796
1565633732190, 10.125929, 9.874666, -2.2417383, 0.0023950196, 0.37304947, -0.12144015, 0.3472762, 0.06178534
1565633732191, 10.141427, 9.869876, -2.304009, 0.3544629, 0.38692865, -0.10972224, 0.36325517, 0.07563378
1565633732198, 10.081532, 9.814791, -2.201023, 0.68018556, 0.39131907, -0.0958738, 0.3717773, 0.07563378
1565633732199, 10.141229, 9.814791, -2.3447242, 1.0083033, 0.3786682, -0.06178534, 0.36751625, 0.06711166
1565633732212, 10.175138, 9.848321, -2.2680836, 1.1831397, 0.35646906, -0.033023197, 0.35153726, 0.049002163
1565633732213, 10.29331, 9.915381, -2.4189699, 1.336421, 0.29388365, 0.0031957934, 0.29188246, 0.034088463
1565633732218, 10.1799135, 9.826766, -2.3495142, 1.2430152, 0.22583857, 0.03089267, 0.22370553, 0.002130529
1565633732219, 10.24385, 9.891431, -2.3902297, 1.1759547, 0.15029292, 0.04580637, 0.13848437, -0.036218993
1565633732228, 10.096914, 9.711804, -2.4980054, 1.1783496, 0.10989792, 0.07350325, 0.0628506, -0.05219796
1565633732229, 9.8893795, 9.524993, -2.4812403, 0.9580079, 0.105283484, 0.07882957, -0.014913702, -0.068176925
1565633732238, 9.8234005, 9.460327, -2.4932153, 0.8861573, 0.14252666, 0.08948222, -0.07350325, -0.083090626
1565633732239, 9.756766, 9.393267, -2.562671, 0.62749517, 0.1816518, 0.09054748, -0.13102753, -0.08735169
1565633732248, 9.87284, 9.510623, -2.5866213, 0.5748047, 0.18576574, 0.09054748, -0.13528858, -0.08948222
1565633732249, 9.808781, 9.460327, -2.5770411, 0.2706372, 0.17087784, 0.07350325, -0.11824436, -0.099069595
1565633732259, 9.879943, 9.5633135, -2.4764502, 0.15328126, 0.12814206, 0.05752428, -0.07989483, -0.082025364
1565633732259, 9.991104, 9.690249, -2.4333398, 0.009580079, 0.09616925, 0.02876214, -0.014913702, -0.09054748
1565633732269, 10.16499, 9.877061, -2.3998096, -0.10777588, 0.12038431, -0.0053263223, 0.06498113, -0.101200126
1565633732270, 10.316922, 10.023157, -2.3926246, -0.5005591, 0.19478616, -0.05006743, 0.15446335, -0.10759171
1565633732279, 10.2867775, 9.999207, -2.3447242, -0.57959473, 0.286255, -0.10333065, 0.23435818, -0.12783173
1565633732280, 10.2514515, 9.939331, -2.3662794, -0.8382569, 0.39180592, -0.1736381, 0.32277513, -0.13848437
1565633732290, 10.249062, 9.941727, -2.3423293, -0.847837, 0.48424208, -0.23648871, 0.39734364, -0.1438107
1565633732291, 10.270294, 9.939331, -2.435735, -0.86939216, 0.5792473, -0.29827404, 0.47191215, -0.15446335
1565633732303, 10.161039, 9.807606, -2.560276, -0.7089258, 0.6419436, -0.34301516, 0.51984906, -0.1555286
1565633732304, 10.007482, 9.654325, -2.5938063, -0.46463382, 0.69999546, -0.38456047, 0.5581986, -0.17470337
1565633732312, 10.05331, 9.69504, -2.6441016, -0.28979737, 0.7325651, -0.40906155, 0.58269966, -0.17257284
1565633732313, 10.030911, 9.6758795, -2.6393116, 0.17483643, 0.73193353, -0.41225734, 0.5773733, -0.18002969
1565633732322, 10.129375, 9.74773, -2.7135572, 0.47181886, 0.70487106, -0.4016047, 0.5411543, -0.2066613
1565633732324, 10.222164, 9.77647, -2.907554, 0.6777906, 0.6596843, -0.37923414, 0.49641323, -0.21198763
1565633732333, 10.267668, 9.78605, -3.0201197, 0.732876, 0.60504305, -0.3568636, 0.4293016, -0.23329292
1565633732334, 10.294497, 9.788445, -3.1302907, 0.60354495, 0.5439414, -0.3323625, 0.35260254, -0.24714136
1565633732345, 10.389036, 9.860296, -3.2021413, 0.6730005, 0.48563212, -0.30253512, 0.27803403, -0.25885928
1565633732346, 10.48467, 9.901011, -3.3721876, 0.72569096, 0.43890187, -0.28229508, 0.20772657, -0.26418558
1565633732349, 10.568138, 9.917776, -3.5829494, 0.69695073, 0.39208677, -0.2428803, 0.11504856, -0.28549087
1565633732351, 10.679139, 9.963282, -3.7937112, 0.62031007, 0.36767676, -0.21731395, 0.029827405, -0.29507825
1565633732359, 10.826871, 10.001602, -4.1098537, 0.5460645, 0.3589309, -0.18961707, 0.007456851, -0.30466563
1565633732360, 10.660073, 9.874666, -4.014053, -0.12454102, 0.35284063, -0.20133498, 0.002130529, -0.28975195
1565633732369, 11.141224, 10.080638, -4.7397437, -0.20597169, 0.35258484, -0.21837921, 0.033023197, -0.27483824
1565633732370, 11.274333, 10.037527, -5.122947, -0.33769777, 0.37970367, -0.25033715, 0.1107875, -0.26312032
1565633732379, 10.875195, 9.553733, -5.151687, -0.67539555, 0.39196086, -0.2876214, 0.17789917, -0.19813919
1565633732381, 10.533996, 9.105865, -5.264253, -0.57959473, 0.4401399, -0.34408042, 0.2428803, -0.12783173
1565633732390, 10.496193, 9.072334, -5.261858, -0.41912845, 0.5211528, -0.38136467, 0.3472762, -0.07456851
1565633732391, 10.305397, 8.995694, -5.024751, -0.17483643, 0.60127455, -0.41545314, 0.4346279, -0.0053263223
1565633732404, 10.240982, 8.935819, -4.9648757, 0.61552006, 0.6542268, -0.406931, 0.50600064, 0.07989483
1565633732405, 10.235489, 8.940608, -4.8211746, 1.2597803, 0.71798664, -0.3653857, 0.59761333, 0.15765914
1565633732411, 10.234448, 9.053174, -4.378096, 1.9016455, 0.7486195, -0.29188246, 0.6583334, 0.20453078
1565633732412, 10.677459, 9.503438, -4.0882983, 2.6417067, 0.7188018, -0.17576863, 0.660464, 0.22264028
1565633732421, 11.090444, 9.908196, -3.774551, 3.2524366, 0.68176675, -0.02876214, 0.64768076, 0.21092236
1565633732422, 11.360157, 10.289004, -3.3410523, 3.4679885, 0.62928194, 0.12357068, 0.5965481, 0.15765914
1565633732435, 11.411858, 10.466236, -2.9985645, 3.420088, 0.5922612, 0.26844665, 0.51771855, 0.10333065
1565633732436, 11.41622, 10.6746025, -2.8500733, 2.8740237, 0.5862527, 0.40266997, 0.4250405, 0.029827405
1565633732444, 11.324777, 10.772799, -2.692002, 2.2249732, 0.613449, 0.5219796, 0.31957933, -0.041545313
1565633732445, 10.806582, 10.425521, -2.3303542, 1.6310084, 0.6440517, 0.608266, 0.18535602, -0.10226539
1565633732455, 10.473908, 10.219549, -2.196233, 0.66342044, 0.68600136, 0.6625945, 0.0628506, -0.16618125
1565633732456, 10.265581, 10.078242, -1.951941, 0.033530276, 0.75115114, 0.71479243, -0.0479369, -0.22583607
1565633732464, 10.090651, 9.889036, -1.84177, -0.79754156, 0.7796237, 0.72011876, -0.13741912, -0.26525086
1565633732465, 9.869179, 9.580078, -1.7675245, -1.5807129, 0.7940795, 0.7073356, -0.1917476, -0.3057309
1565633732476, 9.694812, 9.299861, -1.6334034, -2.198628, 0.7679138, 0.6562029, -0.22050974, -0.3323625
1565633732476, 9.854965, 9.280701, -1.6477735, -2.8764186, 0.7358919, 0.6040049, -0.21518342, -0.36112466
1565633732484, 9.934364, 9.223221, -1.6286134, -3.3123121, 0.6786345, 0.5251754, -0.20026971, -0.38029942
1565633732485, 9.988956, 9.16574, -1.5184424, -3.6691701, 0.6065435, 0.43356264, -0.15126756, -0.39627838
1565633732496, 9.919796, 8.978929, -1.5998731, -3.9014869, 0.53898805, 0.33129725, -0.08522116, -0.4165184
1565633732497, 9.775132, 8.729847, -1.7148341, -4.0499783, 0.47367027, 0.23116238, -0.00958738, -0.4133226
1565633732504, 9.455929, 8.396939, -1.6884888, -4.006868, 0.42625225, 0.13102753, 0.070307456, -0.39947417
1565633732505, 9.183082, 8.167017, -1.8681153, -3.7601807, 0.4308702, 0.027696876, 0.16937704, -0.39521313
1565633732516, 8.878114, 7.9682302, -1.9184108, -3.412903, 0.44813588, -0.040480047, 0.257794, -0.36432046
1565633732517, 8.467512, 7.6592727, -2.1818628, -2.8764186, 0.48398423, -0.09054748, 0.32810146, -0.34408042
1565633732524, 8.087731, 7.472461, -2.201023, -2.1746778, 0.50095415, -0.11824436, 0.3717773, -0.314253
1565633732525, 7.851957, 7.34313, -2.3135889, -1.5423926, 0.51086736, -0.13102753, 0.40586576, -0.28122982
1565633732536, 7.735211, 7.2281694, -2.4908204, -1.1759547, 0.5010878, -0.12144015, 0.41545314, -0.25246766
1565633732537, 7.639789, 7.1491337, -2.6656568, -0.3879932, 0.47419468, -0.09374327, 0.40266997, -0.23222765
1565633732545, 7.6760674, 7.165899, -2.7446926, -0.19639161, 0.43939805, -0.046871636, 0.3930826, -0.19068234
1565633732546, 7.6768227, 7.1706886, -2.7279274, 0.2706372, 0.39906064, 0.013848438, 0.36005938, -0.17150758
1565633732555, 7.756553, 7.180269, -2.8644435, 0.6346802, 0.35635445, 0.09054748, 0.3174488, -0.13422333
1565633732556, 7.7636347, 7.1371584, -2.943479, 0.81909674, 0.31288144, 0.165116, 0.24394555, -0.10546118
1565633732566, 7.863184, 7.2449346, -2.955454, 0.7783814, 0.3060796, 0.23009712, 0.18535602, -0.07989483
1565633732567, 8.085, 7.5035963, -2.9698243, 0.49337405, 0.31780252, 0.294013, 0.10546118, -0.058589544
1565633732576, 8.318724, 7.7407036, -3.0344899, 0.27303225, 0.3332576, 0.330232, 0.013848438, -0.04261058
1565633732577, 8.50797, 7.8987746, -3.1566358, -0.17483643, 0.35361165, 0.34301516, -0.082025364, -0.025566347
1565633732585, 8.886846, 8.296348, -3.1087356, -0.6945557, 0.3782559, 0.34408042, -0.15446335, -0.02876214
1565633732586, 9.134118, 8.468789, -3.1255007, -1.3939015, 0.3726188, 0.30999196, -0.2066613, -0.0063915867
1565633732592, 9.494202, 8.768167, -3.1901662, -1.7555494, 0.33010483, 0.2428803, -0.22264028, -0.020240024
1565633732600, 9.88198, 9.091495, -3.178191, -2.2129982, 0.27592406, 0.1736381, -0.21411815, -0.011717909
1565633732603, 10.132824, 9.259146, -3.2380664, -2.5411158, 0.19541141, 0.08522116, -0.17576863, -0.0053263223
1565633732605, 10.53754, 9.611214, -3.2572267, -2.8380983, 0.09756915, -0.008522116, -0.0958738, -0.015978966
1565633732613, 10.703546, 9.788445, -3.2069314, -2.9099488, 0.11044383, -0.10759171, 0.008522116, -0.023435818
1565633732614, 10.950961, 10.027947, -3.3051271, -2.9051588, 0.21724343, -0.1917476, 0.0958738, -0.035153728
1565633732623, 11.014123, 10.159674, -3.3506324, -2.6201515, 0.33486602, -0.2727077, 0.18748654, -0.051132694
1565633732624, 11.028898, 10.219549, -3.4464333, -2.3064039, 0.43204454, -0.34194988, 0.25885928, -0.05219796
1565633732633, 10.825998, 10.056687, -3.4967287, -1.9591261, 0.49462697, -0.37710363, 0.31318775, -0.066046394
1565633732634, 10.749438, 10.027947, -3.4991236, -1.6573536, 0.5497064, -0.41545314, 0.35260254, -0.07243799
1565633732644, 10.56481, 9.898616, -3.5087037, -1.1496094, 0.56822747, -0.4165184, 0.37816888, -0.07989483
1565633732645, 10.48136, 9.79084, -3.6452198, -0.8430469, 0.57989633, -0.42397526, 0.38562572, -0.08841695
1565633732654, 10.415047, 9.769285, -3.5757644, -0.4981641, 0.5837523, -0.4165184, 0.39734364, -0.096939065
1565633732654, 10.26406, 9.594449, -3.642825, -0.16525635, 0.55992293, -0.3888215, 0.3930826, -0.08841695
1565633732664, 10.0749235, 9.417217, -3.5757644, 0.18441652, 0.53898805, -0.36325517, 0.38775626, -0.09054748
1565633732665, 9.973165, 9.278306, -3.647615, 0.2682422, 0.49282268, -0.3206446, 0.3653857, -0.080960095
1565633732677, 9.833293, 9.129815, -3.6068995, 0.5748047, 0.4521317, -0.2908172, 0.3387541, -0.07137272
1565633732678, 9.755148, 9.0076685, -3.6380348, 0.8885523, 0.3717834, -0.221575, 0.29294774, -0.05752428
1565633732684, 9.727209, 8.983719, -3.5949244, 0.99393314, 0.29954016, -0.165116, 0.24394555, -0.054328486
1565633732685, 9.790305, 9.012459, -3.66438, 1.094524, 0.21912622, -0.08628642, 0.19813919, -0.036218993
1565633732699, 9.713622, 8.950189, -3.5566041, 1.2645704, 0.1400529, -0.017044231, 0.13528858, -0.03195793
1565633732700, 9.894591, 9.110655, -3.6452198, 1.2693604, 0.09147638, 0.05219796, 0.07137272, -0.023435818
1565633732705, 9.901686, 9.1849, -3.5613942, 0.9987232, 0.12547983, 0.12250541, 0.0053263223, -0.026631612
1565633732706, 9.859053, 9.206455, -3.4488282, 0.74006104, 0.17318001, 0.17044231, -0.02876214, -0.010652645
1565633732717, 9.824937, 9.220825, -3.3817677, 0.26345217, 0.21320996, 0.20559604, -0.056459017, -0.0010652645
1565633732718, 9.780051, 9.182506, -3.3530276, -0.29698244, 0.23125319, 0.22370553, -0.058589544, 0.0010652645
1565633732727, 10.0013485, 9.400452, -3.3171022, -0.8095166, 0.21517815, 0.20985709, -0.04580637, 0.0127831735
1565633732728, 10.134603, 9.501043, -3.290757, -1.2693604, 0.18873528, 0.18642128, -0.01917476, 0.022370555
1565633732740, 10.337446, 9.671089, -3.2548318, -1.6549586, 0.1470065, 0.14487597, 0.023435818, 0.008522116
1565633732741, 10.508415, 9.829161, -3.1159205, -2.0261867, 0.121018924, 0.09374327, 0.07563378, 0.011717909
1565633732746, 10.669637, 9.946517, -3.1350808, -2.2537134, 0.14015415, 0.036218993, 0.13528858, -0.0053263223
1565633732747, 10.945397, 10.200389, -3.1901662, -2.3614893, 0.20619403, -0.017044231, 0.2034655, -0.02876214
1565633732760, 11.004125, 10.277029, -3.1350808, -2.3758595, 0.28507322, -0.070307456, 0.2695119, -0.060720075
1565633732761, 10.913994, 10.183623, -3.1374757, -2.3590944, 0.33596388, -0.12037488, 0.30466563, -0.07456851
1565633732767, 10.739624, 10.023157, -3.1853762, -2.1746778, 0.37799633, -0.15126756, 0.33129725, -0.101200126
1565633732768, 10.464904, 9.817185, -3.1231055, -1.839375, 0.37533152, -0.16618125, 0.31851408, -0.10865697
1565633732783, 10.197602, 9.560919, -3.1973512, -1.5352076, 0.36290044, -0.17150758, 0.30040458, -0.10972224
1565633732795, 10.019721, 9.388477, -3.2428565, -1.3172607, 0.3249406, -0.16085494, 0.26631612, -0.09374327
1565633732796, 9.874347, 9.261541, -3.2332766, -1.1280543, 0.29128507, -0.1555286, 0.23222765, -0.082025364
1565633732797, 9.748921, 9.1130495, -3.3266823, -0.9627979, 0.24282889, -0.11930962, 0.1949434, -0.082025364
1565633732798, 9.5642805, 8.971744, -3.2236965, -0.76880133, 0.20486894, -0.1107875, 0.1587244, -0.06711166
1565633732800, 9.537823, 8.911868, -3.3290772, -0.6825806, 0.16462731, -0.084155895, 0.12676647, -0.0628506
1565633732805, 9.406364, 8.787327, -3.3051271, -0.58198977, 0.11664524, -0.049002163, 0.099069595, -0.037284255
1565633732806, 9.269338, 8.667576, -3.2428565, -0.52690434, 0.076499045, -0.025566347, 0.070307456, -0.015978966
1565633732815, 9.007732, 8.416099, -3.1853762, -0.4023633, 0.05345463, 0.00958738, 0.05219796, 0.0063915867
1565633732816, 8.76439, 8.176597, -3.1350808, -0.35925296, 0.061352205, 0.035153728, 0.029827405, 0.040480047
1565633732827, 8.617632, 8.0305, -3.1159205, -0.2562671, 0.10881352, 0.07137272, 0.013848438, 0.080960095
1565633732827, 8.587042, 8.023315, -3.04886, -0.26105714, 0.1605725, 0.112918034, -0.0063915867, 0.113983296
1565633732840, 8.539404, 8.040081, -2.8716285, -0.17962648, 0.20313062, 0.14487597, -0.022370555, 0.14061491
1565633732840, 8.642241, 8.133487, -2.9099488, -0.25866213, 0.24246879, 0.17470337, -0.025566347, 0.16618125
1565633732854, 8.653554, 8.198153, -2.7518775, -0.31853762, 0.28736484, 0.221575, -0.06924219, 0.16937704
1565633732854, 8.673942, 8.243657, -2.682422, -0.28979737, 0.32221213, 0.2514024, -0.09267801, 0.17896444
1565633732855, 8.633488, 8.195757, -2.668052, -0.4981641, 0.3514614, 0.27483824, -0.11504856, 0.18642128
1565633732856, 8.584136, 8.195757, -2.4644752, -0.6658155, 0.38317993, 0.29507825, -0.14168017, 0.19920446
1565633732875, 8.66285, 8.250843, -2.4022048, -1.094524, 0.38738146, 0.29827404, -0.14487597, 0.20026971
1565633732876, 8.735126, 8.262817, -2.4572902, -1.4106666, 0.3739746, 0.2727077, -0.15659387, 0.20240025
1565633732877, 8.75751, 8.231683, -2.4189699, -1.7555494, 0.36598772, 0.24714136, -0.16298546, 0.21518342
1565633732878, 8.659867, 8.104747, -2.3016138, -2.0022364, 0.34013978, 0.20985709, -0.1470065, 0.22370553
1565633732889, 8.713858, 8.131092, -2.2345533, -2.196233, 0.3202905, 0.16085494, -0.14061491, 0.23861924
1565633732891, 8.796372, 8.205338, -2.1411476, -2.3375392, 0.31364036, 0.12144015, -0.128897, 0.25885928
1565633732899, 8.792825, 8.169412, -2.2704787, -2.327959, 0.31318593, 0.07350325, -0.113983296, 0.28229508
1565633732900, 9.044417, 8.428074, -2.2201831, -2.4165747, 0.3093855, 0.015978966, -0.09161274, 0.29507825
1565633732910, 9.097198, 8.519085, -2.2106032, -2.3016138, 0.3238719, -0.035153728, -0.05965481, 0.31638354
1565633732911, 9.268204, 8.696317, -2.3830445, -2.1435425, 0.32464358, -0.06924219, -0.022370555, 0.31638354
1565633732919, 9.393873, 8.856783, -2.4908204, -1.8968556, 0.33729374, -0.10439592, -0.007456851, 0.3206446
1565633732921, 9.662479, 9.168135, -2.4644752, -1.7986598, 0.3477562, -0.12783173, 0.020240024, 0.32277513
1565633732931, 9.681756, 9.16095, -2.7087672, -1.5735279, 0.36582026, -0.15233281, 0.066046394, 0.32597092
1565633732933, 9.77914, 9.278306, -2.7399025, -1.4274317, 0.37434614, -0.16298546, 0.08948222, 0.32490566
1565633732941, 9.787177, 9.261541, -2.8836036, -1.3028907, 0.38699755, -0.18855181, 0.08522116, 0.3270362
1565633732942, 9.767204, 9.261541, -2.9602442, -0.9268726, 0.3857405, -0.18216023, 0.08522116, 0.3291667
1565633732949, 9.84322, 9.321417, -3.1087356, -0.57959473, 0.3854462, -0.17150758, 0.054328486, 0.34088463
1565633732950, 9.953062, 9.441168, -3.1422658, -0.23231691, 0.37975147, -0.14594123, 0.02876214, 0.34940675
1565633732964, 9.929767, 9.381292, -3.2476466, -0.21076173, 0.3772796, -0.12783173, -0.0127831735, 0.35473305
1565633732966, 10.00989, 9.445957, -3.3123121, 0.019160157, 0.37087575, -0.094808534, -0.05219796, 0.35473305
1565633732967, 10.068801, 9.481883, -3.3865578, 0.07664063, 0.38620943, -0.07669904, -0.094808534, 0.36645097
1565633732968, 10.198588, 9.616004, -3.391348, 0.20597169, 0.39224014, -0.054328486, -0.128897, 0.36645097
1565633732985, 10.309729, 9.69504, -3.5039136, 0.13891114, 0.40232882, -0.035153728, -0.15233281, 0.37071204
1565633732986, 10.434142, 9.833951, -3.4727786, 0.32332766, 0.41508287, -0.01917476, -0.17470337, 0.37603834
1565633732987, 10.558314, 9.936936, -3.5613942, 0.22752686, 0.43532446, -0.014913702, -0.2034655, 0.38456047
1565633732989, 10.529031, 9.941727, -3.4560134, 0.2802173, 0.44151324, 0.010652645, -0.22583607, 0.37923414
1565633733005, 10.700794, 10.140513, -3.410508, 0.21315674, 0.4607623, 0.025566347, -0.2695119, 0.37284255
1565633733006, 10.934393, 10.38241, -3.4296682, 0.06227051, 0.47082397, 0.04261058, -0.30786142, 0.3536678
1565633733008, 11.056145, 10.473421, -3.537444, 0.17962648, 0.47792757, 0.040480047, -0.32810146, 0.34514567
1565633733010, 11.229844, 10.669812, -3.5015187, 0.06227051, 0.47761166, 0.04261058, -0.35899413, 0.3121225
1565633733018, 11.372154, 10.825489, -3.4823585, -0.08861572, 0.47748214, 0.03195793, -0.37816888, 0.28975195
1565633733025, 11.47593, 10.93087, -3.4871485, -0.22992188, 0.44985324, 0.020240024, -0.3717773, 0.25246766
1565633733030, 11.620852, 11.105706, -3.3937428, -0.43589357, 0.4330703, 0.010652645, -0.3653857, 0.23222765
1565633733031, 11.600497, 11.103311, -3.3386574, -0.37601808, 0.3708115, -0.01917476, -0.3174488, 0.19068234
1565633733041, 11.806113, 11.311678, -3.3410523, -0.51732427, 0.30853155, -0.04580637, -0.25992453, 0.15978967
1565633733042, 11.769675, 11.263778, -3.3865578, -0.42870852, 0.24755883, -0.06178534, -0.2034655, 0.12676647
1565633733054, 11.570269, 11.067386, -3.3650026, -0.24668702, 0.1944859, -0.06391586, -0.14487597, 0.112918034
1565633733055, 11.458797, 10.938055, -3.410508, -0.17723145, 0.1509559, -0.080960095, -0.09374327, 0.08628642
1565633733060, 11.463397, 10.962005, -3.3530276, 0.033530276, 0.12154289, -0.07669904, -0.05006743, 0.07989483
1565633733061, 11.426426, 10.935659, -3.3051271, 0.22513184, 0.08758521, -0.068176925, -0.03195793, 0.04474111
1565633733076, 11.425348, 10.904525, -3.3937428, 0.33530274, 0.058200885, -0.05006743, -0.010652645, 0.027696876
1565633733077, 11.430588, 10.882969, -3.4488282, 0.57001466, 0.019204328, -0.015978966, -0.008522116, -0.0063915867
1565633733079, 11.401795, 10.847044, -3.412903, 0.8334668, 0.040043175, 0.017044231, -0.014913702, -0.033023197
1565633733080, 11.328402, 10.756033, -3.3985329, 1.0442286, 0.10620104, 0.07137272, -0.037284255, -0.06924219
1565633733095, 11.083598, 10.485396, -3.427273, 1.0753639, 0.16282524, 0.12250541, -0.060720075, -0.08841695
1565633733097, 10.965454, 10.35367, -3.4608033, 1.0322535, 0.22151612, 0.165116, -0.10226539, -0.10652645
1565633733100, 10.79897, 10.197993, -3.403323, 1.0178833, 0.28573722, 0.21518342, -0.1470065, -0.11717909
1565633733102, 10.685006, 10.114168, -3.3673975, 0.73048097, 0.34646323, 0.2609898, -0.18642128, -0.13102753
1565633733116, 10.644179, 10.056687, -3.439248, 0.57719976, 0.40114808, 0.30146983, -0.21411815, -0.1555286
1565633733118, 10.453668, 9.867481, -3.427273, 0.40715334, 0.44037575, 0.3323625, -0.23009712, -0.17470337
1565633733119, 10.271005, 9.718989, -3.3147073, 0.21794678, 0.46397248, 0.36005938, -0.23861924, -0.16937704
1565633733121, 10.173867, 9.637559, -3.2572267, 0.12454102, 0.46811193, 0.36964676, -0.22796659, -0.17470337
1565633733134, 10.012188, 9.441168, -3.3266823, -0.20357667, 0.46754554, 0.37390783, -0.21624869, -0.17896444
1565633733136, 9.886035, 9.340576, -3.2165112, -0.37601808, 0.45557216, 0.36751625, -0.19920446, -0.18109496
1565633733142, 9.716395, 9.144185, -3.2500417, -0.47900394, 0.44282854, 0.36218992, -0.1949434, -0.16405073
1565633733143, 9.544031, 8.959768, -3.2189064, -0.6706055, 0.42783067, 0.3536678, -0.18642128, -0.15233281
1565633733156, 9.442788, 8.808882, -3.3123121, -0.77359134, 0.41584903, 0.3472762, -0.17789917, -0.1438107
1565633733157, 9.2856, 8.665181, -3.2428565, -0.7879615, 0.40080002, 0.330232, -0.18322548, -0.13422333
1565633733160, 9.126219, 8.502319, -3.2093263, -0.83586186, 0.39647448, 0.3323625, -0.18748654, -0.10759171
1565633733161, 9.058104, 8.432864, -3.2045362, -0.8167017, 0.3950063, 0.32384038, -0.20772657, -0.08948222
1565633733176, 9.077584, 8.468789, -3.159031, -0.8382569, 0.3883499, 0.314253, -0.21411815, -0.07882957
1565633733178, 8.896956, 8.267608, -3.1949563, -0.7711963, 0.40142947, 0.32384038, -0.23116238, -0.053263225
1565633733179, 8.806355, 8.164622, -3.2356715, -0.6490503, 0.4208981, 0.32170987, -0.2695119, -0.03195793
1565633733181, 8.737223, 8.162227, -3.0752053, -0.51013917, 0.45169976, 0.3355583, -0.30146983, -0.023435818
1565633733190, 8.620904, 8.035291, -3.0823903, -0.5029541, 0.4866615, 0.34940675, -0.3387541, 0.0
1565633733191, 8.622592, 8.025711, -3.0967603, -0.5891748, 0.50659454, 0.34621096, -0.36964676, 0.011717909
1565633733200, 8.714568, 8.152647, -3.0368848, -0.50534916, 0.53389305, 0.3568636, -0.39627838, 0.025566347
1565633733201, 8.72518, 8.183782, -2.9794044, -0.52690434, 0.55729115, 0.3749731, -0.4111921, 0.029827405
1565633733210, 8.68269, 8.164622, -2.9099488, -0.51013917, 0.5924671, 0.38562572, -0.4495416, 0.014913702
1565633733210, 8.660866, 8.188572, -2.7973828, -0.364043, 0.62429494, 0.39947417, -0.47830373, 0.037284255
1565633733219, 8.577901, 8.090376, -2.8452833, -0.17483643, 0.6642451, 0.42717105, -0.50813115, 0.023435818
1565633733220, 8.475688, 8.018526, -2.7351124, -0.244292, 0.69431794, 0.44741106, -0.52837116, 0.05219796
1565633733230, 8.41989, 7.94428, -2.7782228, -0.25387207, 0.73565745, 0.47404268, -0.5603291, 0.05006743
1565633733231, 8.333429, 7.89638, -2.6584718, -0.16046631, 0.77346486, 0.4878911, -0.59761333, 0.05539375
1565633733240, 8.333487, 7.9059596, -2.6297317, -0.16525635, 0.8159654, 0.5113269, -0.6327671, 0.0628506
1565633733241, 8.313221, 7.8365045, -2.7375073, -0.4526587, 0.8696996, 0.52624065, -0.68816084, 0.07669904
1565633733254, 8.23312, 7.726333, -2.7973828, -0.5125342, 0.9127738, 0.5400891, -0.72970617, 0.094808534
1565633733255, 8.357552, 7.793394, -2.938689, -0.68976563, 0.9612995, 0.5422196, -0.7861652, 0.10972224
1565633733263, 8.35426, 7.7311234, -3.0344899, -0.9029224, 1.0095448, 0.5432849, -0.84155893, 0.1257012
1565633733264, 8.516276, 7.8604546, -3.0752053, -1.1328443, 1.0371021, 0.5251754, -0.8841695, 0.13422333
1565633733274, 8.405736, 7.783814, -3.027305, -0.9508228, 1.0832922, 0.5123922, -0.9416938, 0.1555286
1565633733275, 8.388641, 7.7359133, -3.1111305, -0.9196875, 1.1156859, 0.5006743, -0.9821738, 0.17150758
1565633733284, 8.510964, 7.824529, -3.2021413, -0.97956306, 1.1555498, 0.49534798, -1.0279802, 0.18216023
1565633733285, 8.551343, 7.8412943, -3.271597, -0.96758795, 1.181519, 0.47510794, -1.0620687, 0.20559604
1565633733290, 8.579358, 7.8484793, -3.278782, -1.1208692, 1.2030157, 0.45167214, -1.091896, 0.22583607
1565633733291, 8.661858, 7.8556643, -3.5015187, -1.0274634, 1.2283243, 0.43888897, -1.1195929, 0.25033715
1565633733300, 8.489081, 7.704778, -3.439248, -0.93405765, 1.2429154, 0.41545314, -1.1366372, 0.28336033
1565633733301, 8.508331, 7.695198, -3.5063088, -0.9388477, 1.2668284, 0.38775626, -1.1611383, 0.32597092
1565633733311, 8.52247, 7.673643, -3.6188745, -0.80712163, 1.2820877, 0.38029942, -1.1685951, 0.3653857
1565633733312, 8.7328205, 7.8269243, -3.7985013, -0.7568262, 1.2832617, 0.38242993, -1.1568772, 0.40266997
1565633733321, 8.793477, 7.8724294, -3.8823268, -0.52690434, 1.2850132, 0.38456047, -1.1504856, 0.42397526
1565633733322, 9.149584, 8.186177, -4.054768, -0.51013917, 1.2771455, 0.37923414, -1.1345067, 0.44741106
1565633733331, 9.375241, 8.384964, -4.1936793, 0.023950197, 1.2714858, 0.4048005, -1.1153319, 0.45699844
1565633733332, 9.570941, 8.59333, -4.2104445, -0.17244141, 1.263171, 0.4165184, -1.1014835, 0.45699844
1565633733341, 9.919528, 8.8951025, -4.390071, 0.038320314, 1.229342, 0.45060685, -1.0535465, 0.44528055
1565633733342, 10.022295, 8.988508, -4.4331813, -0.0047900393, 1.185735, 0.46658584, -0.99921805, 0.43569317
1565633733351, 10.155321, 9.1202345, -4.4667115, 0.019160157, 1.147407, 0.49321744, -0.9438243, 0.42717105
1565633733352, 10.206967, 9.139395, -4.5385623, -0.23471193, 1.0957885, 0.49215218, -0.87990844, 0.4293016
1565633733361, 10.077631, 8.938213, -4.629573, -0.48379397, 1.0523201, 0.47297743, -0.82557994, 0.4495416
1565633733363, 9.799772, 8.57896, -4.6607084, -0.84544194, 1.0111508, 0.43675843, -0.76912093, 0.49002165
1565633733371, 9.618546, 8.298743, -4.703819, -1.2334352, 0.95977545, 0.39734364, -0.6892261, 0.5368933
1565633733372, 9.501248, 8.116721, -4.768484, -1.2861255, 0.9466989, 0.34301516, -0.6402239, 0.60720074
1565633733381, 9.5506525, 8.111932, -4.8451247, -1.3915064, 0.9408939, 0.29827404, -0.5965481, 0.66365975
1565633733387, 9.65834, 8.260423, -4.8499146, -1.2358302, 0.9404934, 0.26418558, -0.5539375, 0.7126619
1565633733392, 9.80149, 8.502319, -4.7804594, -0.9627979, 0.94977754, 0.2514024, -0.5273059, 0.7488809
1565633733394, 10.024983, 8.811277, -4.7086086, -0.8310718, 0.94710696, 0.23542345, -0.5113269, 0.7616641
1565633733404, 10.23248, 9.06994, -4.6822634, -0.7185059, 0.96324944, 0.23222765, -0.5123922, 0.7819041
1565633733405, 10.022363, 8.978929, -4.404441, -0.65384036, 0.9665025, 0.221575, -0.5294364, 0.777643
1565633733412, 10.574035, 9.445957, -4.7397437, -0.34488282, 0.96378475, 0.24501082, -0.5550028, 0.7488809
1565633733414, 10.892045, 9.72857, -4.87626, -0.4622388, 0.9663522, 0.26418558, -0.57311225, 0.7318367
1565633733422, 10.556674, 9.546548, -4.478687, -0.4981641, 0.9748153, 0.26418558, -0.6103965, 0.7126619
1565633733424, 10.264075, 9.316627, -4.282295, -0.4622388, 0.9986626, 0.27803403, -0.66152924, 0.6945524
1565633733435, 10.355534, 9.347761, -4.4283915, -0.49576905, 1.0166999, 0.29827404, -0.7030745, 0.6711166
1565633733436, 10.614529, 9.639954, -4.409231, -0.5460645, 1.0333928, 0.3121225, -0.74781567, 0.6412892
1565633733445, 10.505608, 9.539363, -4.361331, -0.5891748, 1.0476778, 0.33768883, -0.78083885, 0.6114618
1565633733446, 10.452819, 9.520203, -4.267925, -0.64186525, 1.0653913, 0.350472, -0.829841, 0.56885123
1565633733455, 10.504896, 9.630374, -4.145779, -0.6490503, 1.0656506, 0.38562572, -0.83516735, 0.53795856
1565633733456, 10.489574, 9.618399, -4.143384, -0.59156984, 1.0541086, 0.41225734, -0.83729786, 0.49002165
1565633733465, 10.33701, 9.469908, -4.0930886, -0.6490503, 1.0474395, 0.44101948, -0.8341021, 0.45486793
1565633733466, 10.138714, 9.285491, -4.021238, -0.6346802, 1.0514737, 0.47723848, -0.8266452, 0.44101948
1565633733475, 9.986193, 9.101074, -4.018843, -0.86220706, 1.0490994, 0.4889564, -0.8223842, 0.43036684
1565633733476, 9.655955, 8.744217, -3.9805226, -0.9651929, 1.0478271, 0.50600064, -0.81918836, 0.4133226
1565633733485, 9.588965, 8.62207, -4.018843, -1.2070899, 1.0429945, 0.515588, -0.8064052, 0.41438788
1565633733486, 9.437964, 8.387359, -4.0523734, -1.5184424, 1.0278924, 0.5028048, -0.78936094, 0.4250405
1565633733495, 9.425307, 8.3250885, -4.119434, -1.5998731, 1.0243264, 0.51026165, -0.773382, 0.43675843
1565633733497, 9.343091, 8.260423, -4.047583, -1.6357985, 0.99755466, 0.49321744, -0.74781567, 0.43888897
1565633733505, 9.335501, 8.169412, -4.126619, -1.839375, 0.9836695, 0.48469532, -0.716923, 0.4676511
1565633733507, 9.406781, 8.190968, -4.169729, -2.0022364, 0.9622847, 0.479369, -0.69029135, 0.46871635
1565633733516, 9.389475, 8.059241, -4.3158255, -2.1411476, 0.9374333, 0.45380265, -0.6593987, 0.4878911
1565633733517, 9.361388, 7.999366, -4.267925, -2.3303542, 0.92365247, 0.43675843, -0.6348976, 0.5091964
1565633733526, 9.325284, 7.9634404, -4.2104445, -2.411785, 0.9247594, 0.42077947, -0.62531024, 0.535828
1565633733527, 9.441883, 8.008945, -4.3565407, -2.454895, 0.91011804, 0.39414784, -0.6146576, 0.5432849
1565633733536, 9.434972, 7.965835, -4.4188113, -2.4572902, 0.9071682, 0.38562572, -0.6061355, 0.5539375
1565633733537, 9.695949, 8.143066, -4.509822, -2.7135572, 0.8890562, 0.36005938, -0.60080916, 0.5475459
1565633733543, 9.813673, 8.243657, -4.5768824, -2.7207422, 0.87634623, 0.33768883, -0.6018744, 0.5400891
1565633733544, 9.858296, 8.202942, -4.703819, -2.787803, 0.8848892, 0.3270362, -0.6199839, 0.5400891
1565633733553, 9.965575, 8.2197075, -4.869075, -2.8357031, 0.8602734, 0.28655612, -0.6199839, 0.5230448
1565633733555, 10.214226, 8.499925, -4.7780643, -3.0416749, 0.8345264, 0.25353295, -0.5997439, 0.5219796
1565633733563, 10.356727, 8.52627, -4.984036, -3.1183155, 0.795234, 0.20133498, -0.5795039, 0.50600064
1565633733564, 10.411275, 8.454419, -4.984036, -3.4751735, 0.74747413, 0.14594123, -0.5294364, 0.5070659
1565633733573, 10.429435, 8.428074, -5.0510964, -3.4967287, 0.7073564, 0.084155895, -0.46871635, 0.5230448
1565633733579, 10.442059, 8.377779, -5.108577, -3.5709743, 0.6582791, 0.034088463, -0.3685815, 0.54435015
1565633733587, 10.432662, 8.322693, -5.206773, -3.530259, 0.64678395, -0.027696876, -0.27483824, 0.58483016
1565633733588, 10.411003, 8.351434, -5.2283278, -3.3626075, 0.6448054, -0.07669904, -0.1555286, 0.62104917
1565633733598, 10.497261, 8.48316, -5.264253, -3.2428565, 0.6811739, -0.11717909, -0.05219796, 0.6689861
1565633733599, 10.54506, 8.610096, -5.2834134, -3.0249097, 0.7119833, -0.13848437, 0.029827405, 0.69774824
1565633733608, 10.705671, 8.914263, -5.3145485, -2.6273365, 0.7568072, -0.17789917, 0.084155895, 0.7307714
1565633733609, 10.089374, 8.669971, -4.5529323, -2.42855, 0.7700094, -0.18002969, 0.08735169, 0.7435546
1565633733618, 11.187565, 9.64714, -5.3049684, -1.9878663, 0.7516979, -0.1587244, 0.10972224, 0.72651035
1565633733619, 11.744889, 10.068663, -5.736072, -1.9136207, 0.71636325, -0.12144015, 0.10759171, 0.69774824
1565633733628, 11.507428, 10.015972, -5.455855, -1.5280225, 0.6861874, -0.05752428, 0.084155895, 0.6785734
1565633733629, 11.309953, 10.039923, -5.0630717, -1.2166699, 0.667507, 0.00958738, 0.046871636, 0.66579026
1565633733636, 11.4029045, 10.219549, -4.926555, -1.1472144, 0.6263493, 0.0628506, -0.0031957934, 0.62317973
1565633733637, 11.868346, 10.571617, -5.1852174, -1.4873072, 0.5988454, 0.1107875, -0.05539375, 0.5858955
1565633733645, 12.089824, 10.775193, -5.2019825, -1.7315992, 0.57455885, 0.16085494, -0.101200126, 0.5422196
1565633733646, 11.98397, 10.607542, -5.1468973, -2.1459377, 0.54760915, 0.19387813, -0.14168017, 0.49215218
1565633733657, 11.840121, 10.44468, -5.017566, -2.4333398, 0.5325161, 0.19920446, -0.1587244, 0.4676511
1565633733658, 11.953052, 10.4566555, -5.007986, -2.907554, 0.52019495, 0.20026971, -0.1768339, 0.4463458
1565633733667, 11.94788, 10.3872, -4.998406, -3.1422658, 0.5177383, 0.18961707, -0.20559604, 0.43569317
1565633733669, 11.845554, 10.188414, -4.960086, -3.4512234, 0.4929056, 0.16192019, -0.19920446, 0.42077947
1565633733678, 11.809352, 10.104588, -4.902605, -3.6500099, 0.4688737, 0.128897, -0.1917476, 0.4079963
1565633733679, 11.939477, 10.138118, -4.9145803, -3.9517825, 0.4468756, 0.08948222, -0.16937704, 0.40373522
1565633733686, 11.879547, 10.106983, -4.7972245, -3.9948928, 0.42455968, 0.04261058, -0.14913702, 0.39521313
1565633733687, 11.99923, 10.186019, -4.8163843, -4.126619, 0.3915191, -0.0063915867, -0.11930962, 0.37284255
1565633733696, 11.827936, 10.102193, -4.6966333, -3.9733377, 0.3803233, -0.05219796, -0.0958738, 0.36432046
1565633733697, 11.762398, 10.068663, -4.703819, -3.8535867, 0.35908896, -0.08948222, -0.083090626, 0.33768883
1565633733708, 11.622871, 10.015972, -4.600833, -3.6883302, 0.339206, -0.11930962, -0.0777643, 0.30786142
1565633733709, 11.563513, 10.001602, -4.6607084, -3.4584084, 0.3268904, -0.1438107, -0.07669904, 0.28336033
1565633733718, 11.361677, 9.881851, -4.600833, -3.2045362, 0.32018417, -0.14594123, -0.08948222, 0.27057716
1565633733719, 11.1053505, 9.68067, -4.598438, -2.9099488, 0.30663893, -0.15020229, -0.113983296, 0.24181503
1565633733725, 10.938104, 9.592053, -4.591253, -2.560276, 0.3031983, -0.14061491, -0.13315806, 0.23329292
1565633733735, 10.704096, 9.414823, -4.5529323, -2.2824538, 0.29155374, -0.113983296, -0.16724652, 0.20985709
1565633733736, 10.595067, 9.319021, -4.5625124, -2.1435425, 0.29401878, -0.08841695, -0.19068234, 0.20559604
1565633733737, 10.478278, 9.208851, -4.5529323, -2.064507, 0.29874924, -0.056459017, -0.21731395, 0.19707392
1565633733748, 10.44489, 9.201666, -4.4691067, -2.1100123, 0.28489003, -0.017044231, -0.21837921, 0.18216023
1565633733750, 10.2639065, 9.024434, -4.368516, -2.196233, 0.27636582, -0.00958738, -0.2130529, 0.17576863
1565633733759, 10.209253, 9.019644, -4.1793094, -2.3255641, 0.2699095, -0.00958738, -0.21411815, 0.16405073
1565633733760, 10.078793, 8.806487, -4.1960745, -2.5339308, 0.2583019, -0.0053263223, -0.1949434, 0.16937704
1565633733769, 10.132184, 8.775352, -4.2032595, -2.8261232, 0.24352655, -0.0063915867, -0.17789917, 0.16618125
1565633733770, 10.084658, 8.677156, -4.1242237, -3.0656252, 0.2390706, -0.039414786, -0.16405073, 0.16937704
1565633733778, 10.09544, 8.600515, -4.071533, -3.3721876, 0.23011932, -0.066046394, -0.13848437, 0.17150758
1565633733779, 10.2220545, 8.631651, -4.045188, -3.6907253, 0.2278969, -0.1107875, -0.112918034, 0.16405073
1565633733786, 10.166196, 8.528665, -4.0499783, -3.7697608, 0.24510343, -0.15978967, -0.08735169, 0.16405073
1565633733787, 10.137339, 8.523875, -4.016448, -3.7386258, 0.27395734, -0.20985709, -0.06924219, 0.16192019
1565633733796, 10.207212, 8.52148, -4.133804, -3.8056862, 0.31730756, -0.257794, -0.04261058, 0.18002969
1565633733798, 10.134941, 8.514295, -4.0571632, -3.7098854, 0.33881775, -0.29294774, -0.017044231, 0.16937704
1565633733809, 10.064254, 8.464, -4.1314087, -3.547024, 0.3823958, -0.3355583, -0.007456851, 0.18322548
1565633733810, 10.097636, 8.562195, -4.152964, -3.3769777, 0.40557766, -0.36751625, 0.0031957934, 0.17150758
1565633733820, 10.20969, 8.715476, -4.160149, -3.3123121, 0.43265212, -0.40053943, 0.013848438, 0.16298546
1565633733822, 10.125321, 8.638836, -4.2799, -3.0943654, 0.44771788, -0.41864893, 0.018109497, 0.15765914
1565633733828, 10.131296, 8.681946, -4.296665, -2.9674294, 0.46034464, -0.43356264, 0.020240024, 0.15339808
1565633733830, 10.070174, 8.624466, -4.3541455, -2.8404932, 0.4843253, -0.45806372, 0.029827405, 0.15446335
1565633733839, 10.118403, 8.696317, -4.382886, -2.7470875, 0.49562854, -0.47191215, 0.03195793, 0.14807177
1565633733841, 10.196302, 8.753797, -4.5864625, -2.5099807, 0.48999733, -0.46552056, 0.02876214, 0.15020229
1565633733848, 10.340228, 8.904683, -4.6750784, -2.4022048, 0.50828856, -0.48363006, 0.024501082, 0.15446335
1565633733850, 10.244492, 8.832832, -4.653523, -2.2968237, 0.5106174, -0.4857606, 0.035153728, 0.15339808
1565633733860, 10.283075, 8.907078, -4.761299, -1.9327809, 0.48562974, -0.46019423, 0.04261058, 0.14913702
1565633733862, 10.340874, 9.005274, -4.775669, -1.7411792, 0.46812284, -0.44528055, 0.037284255, 0.13954964
1565633733867, 10.478086, 9.108259, -4.8834453, -1.7268091, 0.44199875, -0.42397526, 0.024501082, 0.12250541
1565633733869, 10.491488, 9.16095, -4.873865, -1.5471827, 0.4192719, -0.40266997, 0.0127831735, 0.11611383
1565633733877, 10.432929, 9.057964, -4.9241605, -1.5974782, 0.3891264, -0.37603834, -0.020240024, 0.098004326
1565633733879, 10.597244, 9.24717, -4.878655, -1.7292042, 0.35919952, -0.34834146, -0.024501082, 0.084155895
1565633733887, 10.445865, 9.13221, -4.8571, -1.4585669, 0.31593847, -0.30466563, -0.00958738, 0.083090626
1565633733889, 10.351406, 9.043594, -4.8020144, -1.5184424, 0.29739198, -0.28868666, -0.02130529, 0.068176925
1565633733897, 10.308278, 9.043594, -4.653523, -1.6789087, 0.28974798, -0.28336033, -0.026631612, 0.054328486
1565633733898, 10.44786, 9.163345, -4.6726832, -1.83219, 0.28230312, -0.28122982, -0.007456851, 0.023435818
1565633733907, 10.562433, 9.21364, -4.7086086, -2.1219873, 0.2774784, -0.27483824, 0.014913702, 0.035153728
1565633733909, 10.431497, 9.036409, -4.734954, -2.1770728, 0.26970765, -0.26631612, 0.041545313, 0.00958738
1565633733919, 10.380496, 8.954978, -4.7325587, -2.2728736, 0.28854904, -0.28229508, 0.058589544, -0.011717909
1565633733921, 10.465322, 8.976534, -4.7636943, -2.5004005, 0.3082611, -0.2972088, 0.080960095, -0.011717909
1565633733930, 10.167901, 8.583751, -4.7804594, -2.6177564, 0.32780737, -0.3121225, 0.10013486, -0.0031957934
1565633733932, 10.194072, 8.55501, -4.8163843, -2.7446926, 0.35128054, -0.33662358, 0.10013486, -0.007456851
1565633733939, 10.096541, 8.442444, -4.8163843, -2.7327175, 0.3728319, -0.36218992, 0.08841695, -0.002130529
1565633733941, 10.104928, 8.454419, -4.775669, -2.7973828, 0.3948986, -0.386691, 0.0777643, -0.01917476
1565633733951, 10.113735, 8.442444, -4.761299, -2.8883936, 0.41147625, -0.40586576, 0.06391586, -0.022370555
1565633733953, 10.088039, 8.351434, -4.84752, -2.919529, 0.43466184, -0.4314321, 0.046871636, -0.024501082
1565633733960, 9.974859, 8.296348, -4.8139896, -2.7375073, 0.44660634, -0.44528055, 0.033023197, -0.00958738
1565633733961, 9.818412, 8.169412, -4.8044095, -2.565066, 0.4503247, -0.44741106, 0.029827405, -0.041545313
1565633733971, 9.742307, 8.150251, -4.7708793, -2.3926246, 0.4470533, -0.44528055, 0.013848438, -0.037284255
1565633733973, 9.79597, 8.222102, -4.840335, -2.2201831, 0.4387131, -0.43675843, 0.008522116, -0.040480047
1565633733980, 9.784218, 8.152647, -4.9385304, -2.208208, 0.42009392, -0.41758367, -0.002130529, -0.04580637
1565633733982, 9.735755, 8.1071415, -4.981641, -2.059717, 0.39939037, -0.39521313, -0.01917476, -0.054328486
1565633733990, 9.589439, 7.941885, -5.000801, -1.9687061, 0.38691396, -0.38136467, -0.03089267, -0.05752428
1565633733991, 9.482235, 7.838899, -5.0271463, -1.7866846, 0.3688231, -0.35899413, -0.06391586, -0.05539375
1565633734002, 9.318542, 7.585027, -5.0654664, -1.9088306, 0.35252368, -0.3323625, -0.10865697, -0.04474111
1565633734004, 9.318895, 7.6257424, -5.0199614, -1.8681153, 0.34423208, -0.30466563, -0.15446335, -0.04261058
1565633734009, 9.3082, 7.4916215, -5.113367, -2.090852, 0.35242227, -0.28336033, -0.20559604, -0.040480047
1565633734011, 9.221343, 7.33355, -5.1540823, -2.1650977, 0.3623841, -0.26631612, -0.24501082, -0.01917476
1565633734020, 9.237285, 7.3742657, -5.0678616, -2.2944288, 0.38877484, -0.25672874, -0.29188246, -0.0063915867
1565633734021, 9.292918, 7.3311553, -5.149292, -2.4692652, 0.40921825, -0.23861924, -0.3323625, 0.007456851
1565633734030, 9.163913, 7.2257743, -5.031936, -2.5387208, 0.45338488, -0.24927188, -0.37816888, 0.020240024
1565633734031, 9.172419, 7.1203933, -5.0630717, -2.792593, 0.5037766, -0.25672874, -0.43249738, 0.02876214
1565633734040, 9.15616, 7.0198026, -5.0774417, -2.9626393, 0.5720232, -0.26631612, -0.50387007, 0.049002163
1565633734041, 9.079018, 6.806646, -5.0822315, -3.2045362, 0.6501797, -0.28868666, -0.5763081, 0.08522116
1565633734054, 9.183166, 6.7467704, -5.225933, -3.391348, 0.7211754, -0.3089267, -0.6423545, 0.10972224
1565633734057, 9.24789, 6.69408, -5.2666483, -3.6021094, 0.8042119, -0.33662358, -0.71585774, 0.14487597
1565633734060, 9.365164, 6.7395854, -5.381609, -3.6500099, 0.88091767, -0.36645097, -0.78296936, 0.16937704
1565633734062, 9.321178, 6.71324, -5.391189, -3.5709743, 0.96770936, -0.38456047, -0.8628642, 0.20985709
1565633734070, 9.402895, 6.6653395, -5.5564456, -3.6212697, 1.0347673, -0.40586576, -0.9214538, 0.23861924
1565633734081, 9.407871, 6.6821046, -5.621111, -3.5015187, 1.1462983, -0.41971418, -1.0301107, 0.27696875
1565633734086, 9.346607, 6.581514, -5.6714063, -3.4464333, 1.228309, -0.41438788, -1.1142666, 0.3089267
1565633734088, 9.376717, 6.600674, -5.728887, -3.396138, 1.3141063, -0.4048005, -1.2016183, 0.34514567
1565633734090, 9.357502, 6.6342044, -5.8031325, -3.1422658, 1.4253867, -0.39734364, -1.3177321, 0.37071204
1565633734091, 9.442344, 6.715635, -5.879773, -3.0799952, 1.5192034, -0.38242993, -1.4146712, 0.40053943
1565633734099, 9.56325, 6.7803006, -5.927674, -3.2165112, 1.6162187, -0.36005938, -1.5201324, 0.41438788
1565633734101, 9.700305, 6.8952613, -6.023474, -3.2045362, 1.7071198, -0.33129725, -1.6181368, 0.4314321
1565633734112, 9.800292, 7.084468, -5.973179, -3.1901662, 1.7965201, -0.3057309, -1.7172064, 0.43036684
1565633734114, 9.849396, 7.192244, -5.949229, -3.1446607, 1.8932345, -0.27164245, -1.824798, 0.4250405
1565633734123, 10.023039, 7.3455253, -5.989944, -3.2596216, 1.9730518, -0.24501082, -1.9110844, 0.4250405
1565633734124, 10.206029, 7.436536, -6.0498195, -3.5015187, 2.0246325, -0.21092236, -1.9707392, 0.4133226
1565633734131, 10.163468, 7.4269557, -5.975574, -3.5254688, 2.0756304, -0.18855181, -2.0293288, 0.3930826
1565633734133, 10.351665, 7.6041875, -6.006709, -3.6404297, 2.1026716, -0.15978967, -2.0602214, 0.3888215
1565633734143, 10.399434, 7.6305327, -5.968389, -3.781736, 2.1184278, -0.13635385, -2.082592, 0.36325517
1565633734144, 10.419093, 7.7574687, -5.8031325, -3.8344264, 2.117052, -0.1107875, -2.0857878, 0.34514567
1565633734153, 10.501254, 7.7646537, -5.740862, -4.126619, 2.1088111, -0.084155895, -2.082592, 0.3206446
1565633734154, 10.475206, 7.709568, -5.654641, -4.2799, 2.0669782, -0.06711166, -2.0442424, 0.29827404
1565633734165, 10.592823, 7.697593, -5.5564456, -4.6990285, 1.9985414, -0.06498113, -1.9771309, 0.28442562
1565633734167, 10.574851, 7.5203614, -5.4103494, -5.0989966, 1.9307115, -0.101200126, -1.9100192, 0.26312032
1565633734173, 10.617511, 7.422166, -5.4055595, -5.3313136, 1.8624512, -0.12676647, -1.8397117, 0.2609898
1565633734175, 10.718153, 7.34313, -5.3480787, -5.688172, 1.7685425, -0.16192019, -1.743838, 0.24607609
1565633734182, 10.854957, 7.36708, -5.230723, -6.016289, 1.6836177, -0.21411815, -1.6500946, 0.25672874
1565633734186, 10.902691, 7.084468, -5.2858086, -6.382727, 1.5817971, -0.27057716, -1.5361114, 0.26312032
1565633734192, 11.0950365, 7.096443, -5.4127445, -6.591094, 1.4826254, -0.34408042, -1.4146712, 0.28016454
1565633734195, 11.062109, 6.861731, -5.4678297, -6.7371902, 1.389602, -0.4261058, -1.2868395, 0.3057309
1565633734201, 10.965057, 6.5360084, -5.589976, -6.8018556, 1.3006233, -0.49641323, -1.1515509, 0.34514567
1565633734202, 10.9040575, 6.5623536, -5.575606, -6.68929, 1.2464632, -0.56459016, -1.0460896, 0.3749731
1565633734211, 10.965836, 6.5360084, -5.7312818, -6.6844997, 1.1969582, -0.63702816, -0.9257148, 0.41225734
1565633734213, 10.7448435, 6.437813, -5.738467, -6.4090724, 1.1352011, -0.6849651, -0.7946873, 0.43356264
1565633734222, 10.764045, 6.5288234, -5.767207, -6.3228517, 1.1069297, -0.74461985, -0.6679208, 0.47404268
1565633734223, 10.789089, 6.6581545, -5.7935524, -6.205496, 1.0699805, -0.78296936, -0.5400891, 0.49002165
1565633734231, 10.841769, 6.7707205, -5.7767873, -6.191126, 1.0580887, -0.8330368, -0.42077947, 0.49854377
1565633734232, 10.781941, 6.706055, -5.750442, -6.1815457, 1.0575677, -0.8831042, -0.29827404, 0.49960902
1565633734241, 10.698731, 6.68929, -5.767207, -6.0378447, 1.0815268, -0.9267801, -0.20133498, 0.51984906
1565633734244, 10.80119, 6.825806, -5.8031325, -6.0330544, 1.0892223, -0.9491506, -0.09267801, 0.52624065
1565633734255, 10.71814, 6.68929, -5.8031325, -6.0378447, 1.1347672, -1.0002834, -0.004261058, 0.535828
1565633734257, 10.82681, 6.75156, -5.7839723, -6.1791506, 1.1858677, -1.0503508, 0.082025364, 0.54435015
1565633734266, 10.70024, 6.7467704, -5.8438478, -5.9013286, 1.2203385, -1.0791129, 0.165116, 0.5454154
1565633734267, 10.496754, 6.71803, -5.841453, -5.5612354, 1.2347192, -1.091896, 0.20985709, 0.5368933
1565633734274, 10.265176, 6.6916847, -5.846243, -5.1397123, 1.2427199, -1.0887003, 0.24820662, 0.5454154
1565633734276, 10.082006, 6.591094, -5.7719975, -4.988826, 1.2342043, -1.0705907, 0.27377295, 0.5496765
1565633734282, 9.920618, 6.502478, -5.743257, -4.8115945, 1.2322077, -1.0599382, 0.28442562, 0.5603291
1565633734284, 9.876756, 6.581514, -5.709727, -4.6511283, 1.2117532, -1.0354371, 0.29294774, 0.5571333
1565633734294, 9.6130905, 6.495293, -5.5708156, -4.380491, 1.1756167, -0.99708754, 0.2908172, 0.55074173
1565633734296, 9.575648, 6.581514, -5.5324955, -4.2152348, 1.1481119, -0.9651296, 0.30253512, 0.5432849
1565633734302, 9.495048, 6.6509695, -5.4223247, -4.064348, 1.1087065, -0.922519, 0.3110572, 0.5305017
1565633734304, 9.518208, 6.701265, -5.3792143, -4.0930886, 1.057328, -0.8745821, 0.32490566, 0.49747851
1565633734316, 9.630577, 6.8761015, -5.345684, -4.1098537, 1.0248963, -0.8404937, 0.330232, 0.48469532
1565633734317, 9.630797, 6.9024467, -5.230723, -4.2128396, 0.98679316, -0.81705785, 0.3270362, 0.4463458
1565633734325, 9.795663, 6.9000516, -5.206773, -4.608018, 0.9679274, -0.8000136, 0.34088463, 0.4250405
1565633734327, 10.021437, 6.919212, -5.3025737, -4.9433208, 0.95354617, -0.8000136, 0.34834146, 0.38456047
1565633734336, 10.128316, 6.8689165, -5.2882032, -5.237908, 0.9683131, -0.8159926, 0.36218992, 0.3749731
1565633734338, 10.195997, 6.7731156, -5.3384986, -5.43909, 0.9608224, -0.8085357, 0.37390783, 0.36005938
1565633734344, 10.237386, 6.710845, -5.4510646, -5.4822, 0.9839198, -0.8277105, 0.38562572, 0.36645097
1565633734346, 10.272716, 6.638994, -5.4342995, -5.6498513, 0.99635774, -0.8490158, 0.40266997, 0.33129725
1565633734356, 10.371763, 6.6533647, -5.4989653, -5.750442, 1.0166056, -0.86392945, 0.4293016, 0.3206446
1565633734358, 10.416427, 6.7395854, -5.513335, -5.716912, 1.0378048, -0.8745821, 0.46552056, 0.3089267
1565633734365, 10.436469, 6.6916847, -5.5420756, -5.7815776, 1.0599815, -0.87777793, 0.51452273, 0.2972088
1565633734367, 10.346498, 6.564749, -5.609136, -5.7001467, 1.0796438, -0.8681905, 0.5699165, 0.29507825
1565633734373, 10.240986, 6.4833183, -5.597161, -5.613926, 1.0918639, -0.85966843, 0.6018744, 0.30146983
1565633734375, 10.090527, 6.346802, -5.5732107, -5.52052, 1.1283001, -0.8767126, 0.64555025, 0.29614353
1565633734383, 10.141706, 6.255791, -5.7839723, -5.50136, 1.128026, -0.8586032, 0.6689861, 0.29614353
1565633734391, 10.0840435, 6.205496, -5.860613, -5.369634, 1.142214, -0.850081, 0.7030745, 0.29614353
1565633734393, 10.038146, 6.1647806, -5.8749833, -5.3145485, 1.130362, -0.82344943, 0.7137272, 0.30040458
1565633734395, 10.197129, 6.2677665, -6.0354495, -5.3169436, 1.1232824, -0.809601, 0.72651035, 0.28016454
1565633734404, 10.252714, 6.361172, -6.1575956, -5.1708474, 1.0925941, -0.773382, 0.721184, 0.27483824
1565633734406, 10.130122, 6.1719656, -6.08814, -5.240303, 1.0818902, -0.757403, 0.7286409, 0.25672874
1565633734413, 10.1639805, 6.310877, -6.0306597, -5.206773, 1.0496671, -0.7254451, 0.721184, 0.23542345
1565633734415, 10.122287, 6.246211, -6.0402393, -5.1924024, 1.0114269, -0.68816084, 0.7073356, 0.221575
1565633734425, 10.262199, 6.2917166, -6.12646, -5.3097587, 0.98163354, -0.64768076, 0.7105314, 0.19813919
1565633734427, 10.21915, 6.2510014, -6.11688, -5.2858086, 0.95142907, -0.60720074, 0.7094661, 0.18216023
1565633734436, 10.272819, 6.1480155, -6.239026, -5.367239, 0.92088336, -0.572047, 0.70200926, 0.16724652
1565633734438, 10.277523, 6.05461, -6.231841, -5.489385, 0.9019343, -0.5336975, 0.7073356, 0.16831179
1565633734444, 10.325991, 5.997129, -6.1935205, -5.6833816, 0.88608366, -0.5123922, 0.70200926, 0.17257284
1565633734446, 10.5039625, 5.863008, -6.2270513, -6.09772, 0.8770808, -0.49854377, 0.69987875, 0.17576863
1565633734456, 10.532018, 5.6666164, -6.09772, -6.452183, 0.8911368, -0.5006743, 0.7094661, 0.20026971
1565633734458, 10.730714, 5.7073317, -6.1216702, -6.715635, 0.9113915, -0.5134575, 0.72437984, 0.20559604
1565633734466, 10.86307, 5.8007374, -6.1240654, -6.844966, 0.942033, -0.531567, 0.7488809, 0.20985709
1565633734469, 10.871454, 5.726492, -5.942044, -7.077283, 0.9707792, -0.5550028, 0.7637946, 0.22583607
1565633734476, 10.885163, 5.688172, -5.8917484, -7.1706886, 0.99138296, -0.56672066, 0.777643, 0.23861924
1565633734478, 10.804726, 5.695357, -5.858218, -7.070098, 1.0205389, -0.5837649, 0.80107886, 0.2428803
1565633734487, 10.725172, 5.712122, -5.870193, -6.9240017, 1.0402158, -0.57098174, 0.8277105, 0.26631612
1565633734489, 10.513328, 5.855823, -5.724097, -6.593489, 1.0454652, -0.5773733, 0.8309063, 0.26312032
1565633734496, 10.411655, 5.9037232, -5.6714063, -6.4330225, 1.0300006, -0.5432849, 0.8362326, 0.257794
1565633734498, 10.41008, 6.0426345, -5.6594315, -6.310877, 1.0202336, -0.5209143, 0.8426242, 0.24394555
1565633734507, 10.303845, 6.085745, -5.5660257, -6.1767554, 0.9933898, -0.49321744, 0.829841, 0.23435818
1565633734510, 10.315317, 6.1073003, -5.518125, -6.217471, 0.9619598, -0.46871635, 0.8117315, 0.21624869
1565633734515, 10.207935, 6.1240654, -5.470225, -6.06419, 0.9337782, -0.4495416, 0.78936094, 0.21624869
1565633734518, 10.185314, 6.143225, -5.3792143, -6.08814, 0.90380454, -0.4261058, 0.773382, 0.19281286
1565633734525, 10.117707, 6.2845316, -5.2905984, -5.9061184, 0.8585622, -0.38242993, 0.74781567, 0.17789917
1565633734527, 9.988501, 6.3084817, -5.2187476, -5.721702, 0.81189156, -0.35153726, 0.716923, 0.1470065
1565633734535, 10.002269, 6.466553, -5.1684523, -5.613926, 0.7721198, -0.31851408, 0.6924219, 0.12357068
1565633734536, 9.988732, 6.5264287, -5.113367, -5.5708156, 0.7312216, -0.29188246, 0.664725, 0.08735169
1565633734545, 9.992314, 6.5336137, -5.108577, -5.5732107, 0.66944903, -0.26525086, 0.6125271, 0.051132694
1565633734546, 10.013623, 6.543194, -4.9720607, -5.721702, 0.6007572, -0.23861924, 0.55074173, 0.025566347
1565633734555, 9.938739, 6.3970976, -4.9313455, -5.7911572, 0.5474226, -0.22370553, 0.49960902, -0.004261058
1565633734561, 10.086894, 6.4426026, -4.967271, -5.9635987, 0.49689537, -0.22264028, 0.44315, -0.03089267
1565633734566, 10.134023, 6.365962, -5.022356, -6.07856, 0.44307062, -0.22690132, 0.3749731, -0.06498113
1565633734568, 10.0817795, 6.2605815, -4.9169755, -6.1863356, 0.40021488, -0.22690132, 0.31638354, -0.09267801
1565633734579, 10.115375, 6.346802, -4.976851, -6.104905, 0.36617526, -0.23542345, 0.25672874, -0.112918034
1565633734580, 10.021583, 6.248606, -5.039121, -5.999524, 0.32497028, -0.22796659, 0.18642128, -0.13741912
1565633734589, 9.943698, 6.1887307, -4.984036, -5.977969, 0.30685535, -0.221575, 0.13209279, -0.16618125
1565633734590, 9.948473, 6.236631, -4.9624805, -5.9540186, 0.3068424, -0.22583607, 0.07989483, -0.1917476
1565633734599, 9.937262, 6.133645, -5.024751, -5.989944, 0.30806962, -0.22583607, 0.05006743, -0.2034655
1565633734601, 9.73692, 6.023474, -4.996011, -5.7935524, 0.31030664, -0.23116238, 0.03195793, -0.20453078
1565633734609, 9.841526, 6.0354495, -5.0822315, -5.8821683, 0.33400077, -0.24607609, 0.043675844, -0.221575
1565633734612, 9.875409, 5.951624, -5.1900077, -5.9300685, 0.3560773, -0.25672874, 0.058589544, -0.2396845
1565633734617, 9.8785925, 5.9324636, -5.3169436, -5.841453, 0.36166942, -0.25566345, 0.066046394, -0.24714136
1565633734619, 9.751695, 5.7863674, -5.3169436, -5.774392, 0.36991838, -0.26844665, 0.06498113, -0.24607609
1565633734629, 9.663654, 5.6594315, -5.47741, -5.599556, 0.36879233, -0.2727077, 0.07882957, -0.23542345
1565633734631, 9.690555, 5.6354814, -5.5660257, -5.582791, 0.3507892, -0.26205507, 0.094808534, -0.2130529
1565633734637, 9.557741, 5.4247193, -5.6498513, -5.47741, 0.35685086, -0.27057716, 0.0958738, -0.21198763
1565633734639, 9.439715, 5.350474, -5.752837, -5.233118, 0.345241, -0.25566345, 0.10333065, -0.20772657
1565633734647, 9.412143, 5.3863993, -5.8175025, -5.0726514, 0.31084737, -0.22370553, 0.099069595, -0.1917476
1565633734649, 9.381784, 5.3313136, -5.961204, -4.905, 0.2879014, -0.20559604, 0.09267801, -0.17896444
1565633734657, 9.460623, 5.333709, -6.07856, -4.90979, 0.27213284, -0.18109496, 0.083090626, -0.18535602
1565633734659, 9.497835, 5.3384986, -6.016289, -5.0510964, 0.23949979, -0.165116, 0.06498113, -0.16085494
1565633734672, 9.522507, 5.326524, -6.1863356, -4.902605, 0.21759053, -0.1587244, 0.03834952, -0.1438107
1565633734674, 9.610309, 5.2977834, -6.1959157, -5.0894165, 0.20118272, -0.14168017, 0.018109497, -0.14168017
1565633734677, 9.53911, 5.1971927, -6.143225, -5.122947, 0.17867568, -0.128897, -0.0063915867, -0.12357068
1565633734679, 9.651291, 5.3121533, -6.2510014, -5.0846267, 0.1635207, -0.113983296, -0.035153728, -0.111852765
1565633734688, 9.499544, 5.1852174, -6.2270513, -4.9576907, 0.14899619, -0.094808534, -0.06498113, -0.094808534
1565633734699, 9.44446, 5.1468973, -6.1767554, -4.9552956, 0.13509552, -0.082025364, -0.082025364, -0.06924219
1565633734701, 9.235589, 5.0487013, -6.1144853, -4.734954, 0.14317805, -0.04261058, -0.12676647, -0.051132694
1565633734702, 9.157782, 4.988826, -6.0330544, -4.751719, 0.16782227, -0.026631612, -0.165116, -0.013848438
1565633734707, 9.121509, 4.9457154, -5.9228835, -4.864285, 0.20808135, -0.00958738, -0.20772657, 0.007456851
1565633734709, 9.151064, 4.9529004, -5.831873, -5.0199614, 0.23488295, -0.002130529, -0.23222765, 0.035153728
1565633734720, 9.246724, 5.096602, -5.8175025, -5.0678616, 0.26264548, 0.002130529, -0.25672874, 0.05539375
1565633734721, 9.242568, 5.120552, -5.616321, -5.2594633, 0.26296285, 0.014913702, -0.25353295, 0.068176925
1565633734731, 9.191378, 5.134922, -5.4606447, -5.319339, 0.25701588, 0.022370555, -0.24181503, 0.084155895
1565633734733, 9.32244, 5.2115626, -5.4127445, -5.518125, 0.23200276, 0.0063915867, -0.2130529, 0.09161274
1565633734739, 9.270317, 5.1636624, -5.237908, -5.6426663, 0.21180822, -0.014913702, -0.17789917, 0.113983296
1565633734741, 9.4222765, 5.0918117, -5.360054, -5.841453, 0.1925773, -0.027696876, -0.13422333, 0.13528858
1565633734752, 9.435857, 5.015171, -5.2810183, -5.999524, 0.19193688, -0.051132694, -0.08948222, 0.16192019
1565633734753, 9.480783, 4.9481106, -5.2762284, -6.128855, 0.21767135, -0.08948222, -0.046871636, 0.19281286
1565633734759, 9.4657, 4.840335, -5.199588, -6.255791, 0.25084206, -0.12144015, -0.004261058, 0.21944448
1565633734761, 9.349393, 4.7301636, -5.2666483, -6.1073003, 0.29622206, -0.1555286, 0.029827405, 0.25033715
1565633734772, 9.319264, 4.840335, -5.264253, -5.975574, 0.34412163, -0.18002969, 0.06711166, 0.28549087
1565633734774, 9.169989, 4.9241605, -5.1876125, -5.738467, 0.37826788, -0.1949434, 0.094808534, 0.30999196
1565633734780, 8.891569, 4.82357, -5.1947975, -5.367239, 0.41679078, -0.19068234, 0.12357068, 0.34940675
1565633734782, 8.911409, 5.039121, -5.3049684, -5.087022, 0.42936766, -0.17789917, 0.12037488, 0.3717773
1565633734789, 8.822523, 5.015171, -5.2858086, -4.974456, 0.4320432, -0.15233281, 0.1107875, 0.3888215
1565633734791, 8.865117, 5.142107, -5.2977834, -4.9073954, 0.43266657, -0.12144015, 0.09267801, 0.4048005
1565633734799, 8.980699, 5.2929935, -5.319339, -4.9337406, 0.439274, -0.098004326, 0.06711166, 0.42290998
1565633734801, 9.006557, 5.233118, -5.3121533, -5.0510964, 0.4547594, -0.09267801, 0.029827405, 0.44421527
1565633734808, 9.19827, 5.336104, -5.3217335, -5.2738333, 0.46957505, -0.082025364, -0.0053263223, 0.46232477
1565633734809, 9.386482, 5.47741, -5.391189, -5.388794, 0.48382595, -0.08841695, -0.039414786, 0.47404268
1565633734818, 9.441979, 5.4438796, -5.3217335, -5.585186, 0.49516922, -0.08735169, -0.07563378, 0.48149952
1565633734819, 9.642889, 5.6785917, -5.278623, -5.733677, 0.5019487, -0.10226539, -0.10333065, 0.48043427
1565633734828, 9.855923, 5.863008, -5.364844, -5.829478, 0.5156243, -0.11504856, -0.111852765, 0.49002165
1565633734830, 9.93438, 6.0210795, -5.2762284, -5.8821683, 0.51957065, -0.11504856, -0.10652645, 0.49534798
1565633734838, 10.049275, 6.1863356, -5.3025737, -5.8821683, 0.52288324, -0.12783173, -0.112918034, 0.49428272
1565633734842, 9.974493, 6.1552005, -5.2977834, -5.7911572, 0.52856123, -0.12783173, -0.12037488, 0.49854377
1565633734852, 10.022984, 6.200706, -5.3073635, -5.8175025, 0.52856123, -0.12783173, -0.12037488, 0.49854377
1565633734854, 10.04708, 6.337222, -5.3241286, -5.695357, 0.54044086, -0.11717909, -0.12996227, 0.5113269
1565633734860, 10.006362, 6.2773466, -5.2977834, -5.7145166, 0.5488883, -0.1257012, -0.12783173, 0.5187838
1565633734862, 9.889766, 6.2653713, -5.1684523, -5.6426663, 0.53497493, -0.10013486, -0.12996227, 0.5091964
1565633734873, 9.929509, 6.325247, -5.110972, -5.6977515, 0.55206406, -0.082025364, -0.128897, 0.5305017
1565633734875, 10.07198, 6.5360084, -5.087022, -5.7312818, 0.5364968, -0.082025364, -0.12357068, 0.515588
1565633734880, 10.088277, 6.6342044, -5.029541, -5.6977515, 0.52568185, -0.07350325, -0.09161274, 0.5123922
1565633734881, 10.264413, 6.847361, -4.9145803, -5.858218, 0.52674603, -0.07669904, -0.068176925, 0.51665324
1565633734892, 10.40859, 6.928792, -4.90979, -6.0186844, 0.5072773, -0.07989483, -0.049002163, 0.49854377
1565633734893, 10.416547, 6.943162, -4.873865, -6.0450296, 0.49803364, -0.08522116, -0.025566347, 0.49002165
1565633734902, 10.492302, 7.0269876, -4.84752, -6.100115, 0.48504758, -0.09161274, -0.011717909, 0.47617322
1565633734903, 10.592273, 7.182664, -4.7972245, -6.1312504, 0.46821007, -0.09054748, -0.014913702, 0.45912898
1565633734912, 10.500739, 7.182664, -4.7804594, -5.985154, 0.46939617, -0.10652645, -0.011717909, 0.45699844
1565633734915, 10.694051, 7.2808595, -4.773274, -6.210286, 0.45341864, -0.10439592, -0.013848438, 0.44101948
1565633734922, 10.769399, 7.3766603, -4.792434, -6.212681, 0.43520975, -0.096939065, -0.015978966, 0.42397526
1565633734925, 10.695502, 7.3958206, -4.7014236, -6.1312504, 0.41966686, -0.10013486, -0.022370555, 0.406931
1565633734930, 10.680591, 7.534732, -4.6654983, -5.961204, 0.40395442, -0.10226539, -0.026631612, 0.3898868
1565633734933, 10.573904, 7.431746, -4.605623, -5.9468336, 0.37749913, -0.082025364, -0.026631612, 0.36751625
1565633734942, 10.572811, 7.5035963, -4.6032276, -5.855823, 0.3614968, -0.084155895, -0.027696876, 0.350472
1565633734945, 10.692056, 7.436536, -4.631968, -6.128855, 0.33482704, -0.083090626, -0.03195793, 0.32277513
1565633734950, 10.8266, 7.527547, -4.6918435, -6.207891, 0.31781325, -0.08948222, -0.03834952, 0.30253512
1565633734953, 11.001041, 7.553892, -4.8379397, -6.368357, 0.3064464, -0.101200126, -0.039414786, 0.28655612
1565633734960, 11.033595, 7.592212, -4.8331494, -6.382727, 0.2961569, -0.12037488, -0.041545313, 0.26738137
1565633734963, 11.056878, 7.568262, -4.8666797, -6.4258375, 0.29497057, -0.14913702, -0.060720075, 0.24714136
1565633734970, 11.027818, 7.4964113, -4.976851, -6.375542, 0.29533964, -0.16192019, -0.05965481, 0.2396845
1565633734981, 11.118009, 7.5251517, -5.010381, -6.471343, 0.3005745, -0.18109496, -0.07137272, 0.22903186
1565633734983, 11.057111, 7.429351, -5.024751, -6.466553, 0.28057134, -0.1949434, -0.0628506, 0.1917476
1565633734986, 11.115391, 7.5467067, -5.118157, -6.356382, 0.28374055, -0.20879184, -0.054328486, 0.18429075
1565633734991, 11.269659, 7.719148, -5.1947975, -6.358777, 0.26631823, -0.21198763, -0.02130529, 0.15978967
1565633734994, 11.116444, 7.6425076, -5.225933, -6.1528053, 0.25349936, -0.21092236, 0.029827405, 0.13741912
1565633735003, 11.056272, 7.5874224, -5.240303, -6.100115, 0.257772, -0.2247708, 0.07243799, 0.10333065
1565633735005, 10.998198, 7.4509063, -5.1900077, -6.205496, 0.27676588, -0.23329292, 0.12357068, 0.083090626
1565633735011, 10.9563465, 7.33355, -5.199588, -6.262976, 0.3045874, -0.2428803, 0.16937704, 0.07137272
1565633735013, 10.916177, 7.189849, -5.254673, -6.3132715, 0.34409195, -0.2727077, 0.20453078, 0.046871636
1565633735021, 10.798477, 6.945557, -5.333709, -6.318062, 0.38623294, -0.30253512, 0.23435818, 0.05219796
1565633735024, 10.6841955, 6.840176, -5.2762284, -6.2869267, 0.42479348, -0.3323625, 0.26205507, 0.036218993
1565633735032, 10.579141, 6.6773148, -5.357659, -6.215076, 0.44985706, -0.35579833, 0.27377295, 0.02876214
1565633735034, 10.269455, 6.5384035, -5.261858, -5.9180937, 0.4866207, -0.37284255, 0.3121225, 0.01917476
1565633735042, 10.2003145, 6.6030693, -5.269043, -5.716912, 0.49895558, -0.386691, 0.3153183, 0.0010652645
1565633735044, 10.034289, 6.4042826, -5.3959794, -5.527705, 0.49392098, -0.37923414, 0.31638354, -0.0063915867
1565633735054, 9.859568, 6.3947024, -5.369634, -5.242698, 0.490902, -0.38136467, 0.30786142, -0.027696876
1565633735057, 9.773081, 6.2581863, -5.4822, -5.127737, 0.50395226, -0.37603834, 0.3323625, -0.04580637
1565633735062, 9.701454, 6.248606, -5.4678297, -5.017566, 0.47953114, -0.35153726, 0.3206446, -0.05965481
1565633735065, 9.5212145, 6.0426345, -5.5396805, -4.8427296, 0.47184, -0.35473305, 0.30040458, -0.080960095
1565633735071, 9.444037, 5.961204, -5.5061502, -4.8307548, 0.45726156, -0.34408042, 0.28549087, -0.0958738
1565633735074, 9.4037075, 5.8965383, -5.6905665, -4.6128078, 0.44731343, -0.32277513, 0.28442562, -0.12250541
1565633735081, 9.256963, 5.7145166, -5.7887626, -4.4188113, 0.42930818, -0.30466563, 0.28016454, -0.113983296
1565633735084, 9.107218, 5.601951, -5.709727, -4.3541455, 0.40446958, -0.27483824, 0.27696875, -0.10652645
1565633735091, 9.214307, 5.50136, -5.8749833, -4.485872, 0.3948296, -0.25885928, 0.28229508, -0.0958738
1565633735093, 9.192068, 5.362449, -5.7839723, -4.720584, 0.40277, -0.27164245, 0.28868666, -0.07137272
1565633735101, 9.351058, 5.271438, -5.9324636, -4.9457154, 0.4283264, -0.2876214, 0.3153183, -0.036218993
1565633735103, 9.4816, 5.3289185, -5.894143, -5.1732426, 0.47024035, -0.3110572, 0.35260254, -0.0063915867
1565633735111, 9.416824, 5.2905984, -5.858218, -5.134922, 0.52263683, -0.34940675, 0.38775626, 0.026631612
1565633735118, 9.367485, 5.264253, -5.7983427, -5.1397123, 0.5973266, -0.386691, 0.45060685, 0.06498113
1565633735122, 9.335751, 5.2810183, -5.733677, -5.137317, 0.6618962, -0.4165184, 0.5028048, 0.10865697
1565633735123, 9.253203, 5.2738333, -5.7911572, -4.926555, 0.7204819, -0.43249738, 0.5539375, 0.1587244
1565633735136, 9.278647, 5.43909, -5.757627, -4.8331494, 0.7911373, -0.4612595, 0.608266, 0.20772657
1565633735137, 9.085369, 5.49178, -5.6666164, -4.502637, 0.86650276, -0.4825648, 0.6711166, 0.25992453
1565633735142, 9.099332, 5.589976, -5.728887, -4.3278003, 0.9251777, -0.4857606, 0.72651035, 0.30360037
1565633735144, 9.037861, 5.7696023, -5.616321, -4.1050634, 0.99145967, -0.49747851, 0.7850999, 0.34514567
1565633735152, 9.070099, 5.846243, -5.5372853, -4.174519, 1.0668441, -0.52624065, 0.8479505, 0.37710363
1565633735154, 9.004673, 5.958809, -5.3169436, -4.160149, 1.132098, -0.5273059, 0.9139969, 0.4101268
1565633735167, 8.904444, 5.965994, -5.2738333, -3.9853127, 1.1968387, -0.5336975, 0.9757822, 0.44208476
1565633735170, 8.780374, 5.9707837, -5.0558863, -3.9853127, 1.2547793, -0.5368933, 1.0322412, 0.46978164
1565633735172, 8.588399, 5.965994, -4.9073954, -3.7529957, 1.3076402, -0.54435015, 1.0823087, 0.49215218
1565633735175, 8.647358, 6.119275, -4.768484, -3.8200562, 1.3550273, -0.54435015, 1.1291803, 0.51452273
1565633735186, 8.785909, 6.262976, -4.8906302, -3.7482057, 1.4054044, -0.5613944, 1.1707256, 0.53795856
1565633735188, 8.823692, 6.2701616, -4.888235, -3.8272414, 1.4418113, -0.5496765, 1.2133362, 0.551807
1565633735194, 8.586634, 6.224656, -4.775669, -3.4895437, 1.4552422, -0.5475459, 1.2229236, 0.567786
1565633735196, 8.708782, 6.449788, -4.648733, -3.5542092, 1.4527056, -0.5432849, 1.2090752, 0.5944176
1565633735206, 8.714865, 6.557564, -4.608018, -3.422483, 1.4309835, -0.5454154, 1.1835088, 0.59122175
1565633735208, 8.879911, 6.70366, -4.6942387, -3.4464333, 1.394659, -0.52837116, 1.1462245, 0.5933523
1565633735214, 8.912636, 6.847361, -4.6654983, -3.283572, 1.360575, -0.5209143, 1.1057445, 0.59761333
1565633735216, 9.141546, 7.1084185, -4.6822634, -3.3338673, 1.3117113, -0.5251754, 1.0524813, 0.58056915
1565633735223, 9.352052, 7.472461, -4.5840673, -3.2572267, 1.2733234, -0.5123922, 1.0215886, 0.5613944
1565633735225, 9.52659, 7.7215433, -4.5744877, -3.1949563, 1.2106209, -0.5006743, 0.9736517, 0.51665324
1565633735233, 9.655206, 7.975415, -4.4499464, -3.1326857, 1.1843121, -0.49747851, 0.96086854, 0.48149952
1565633735240, 9.931484, 8.267608, -4.5601172, -3.0799952, 1.1523217, -0.48363006, 0.94488955, 0.44847634
1565633735244, 10.073897, 8.432864, -4.6128078, -3.0153298, 1.0898697, -0.4708469, 0.902279, 0.3898868
1565633735246, 9.948286, 8.428074, -4.5385623, -2.7087672, 1.0387994, -0.45167214, 0.8681905, 0.34834146
1565633735256, 9.883636, 8.406519, -4.509822, -2.5842261, 0.9584497, -0.4048005, 0.8127968, 0.30679616
1565633735258, 9.777533, 8.310719, -4.521797, -2.4668703, 0.88980454, -0.38136467, 0.753142, 0.28122982
1565633735265, 9.672066, 8.138277, -4.5457473, -2.579436, 0.8078126, -0.350472, 0.6849651, 0.24607609
1565633735267, 9.628227, 8.1071415, -4.5577226, -2.4908204, 0.71939194, -0.314253, 0.6146576, 0.20240025
1565633735276, 9.621587, 8.080796, -4.5864625, -2.4980054, 0.6311231, -0.2695119, 0.5432849, 0.17470337
1565633735278, 9.55817, 8.047266, -4.512217, -2.4980054, 0.5602876, -0.23755397, 0.48469532, 0.15020229
1565633735286, 9.693974, 8.2197075, -4.4762917, -2.5243506, 0.48072708, -0.20026971, 0.41758367, 0.128897
1565633735287, 9.566432, 8.104747, -4.397256, -2.548301, 0.43520582, -0.16724652, 0.39095205, 0.09267801
1565633735296, 9.695874, 8.205338, -4.4259963, -2.663262, 0.3898431, -0.128897, 0.36005938, 0.07563378
1565633735298, 9.701053, 8.138277, -4.4691067, -2.811753, 0.35852754, -0.084155895, 0.34408042, 0.05539375
1565633735305, 9.475775, 7.805369, -4.497847, -2.938689, 0.3285335, -0.05006743, 0.3206446, 0.051132694
1565633735308, 9.477694, 7.711963, -4.488267, -3.1949563, 0.31112468, -0.017044231, 0.30466563, 0.060720075
1565633735315, 9.654489, 7.6329274, -4.6726832, -3.6212697, 0.3111612, 0.0063915867, 0.3057309, 0.05752428
1565633735317, 9.956269, 7.709568, -4.8115945, -4.0667434, 0.29529932, -0.010652645, 0.2876214, 0.066046394
1565633735325, 10.258226, 7.668853, -5.029541, -4.5960426, 0.30690897, -0.03834952, 0.29294774, 0.083090626
1565633735328, 10.514507, 7.678433, -5.1540823, -5.0031962, 0.33800626, -0.07350325, 0.30999196, 0.112918034
1565633735335, 10.532773, 7.5706573, -5.1924024, -5.1636624, 0.38115782, -0.11717909, 0.3334278, 0.14274544
1565633735337, 10.653933, 7.561077, -5.2977834, -5.3169436, 0.4320905, -0.14807177, 0.3653857, 0.1768339
1565633735345, 10.639676, 7.558682, -5.372029, -5.216353, 0.48588324, -0.16405073, 0.4079963, 0.2066613
1565633735347, 10.607828, 7.5227566, -5.4510646, -5.120552, 0.5556199, -0.18748654, 0.45806372, 0.25246766
1565633735354, 10.621634, 7.6257424, -5.49178, -4.9505057, 0.5881784, -0.18642128, 0.48363006, 0.27803403
1565633735356, 10.625134, 7.6353226, -5.5660257, -4.8594947, 0.6128234, -0.17044231, 0.5123922, 0.28975195
1565633735364, 10.692357, 7.8891945, -5.465435, -4.7133985, 0.64262646, -0.15659387, 0.551807, 0.28975195
1565633735366, 10.723968, 8.042476, -5.362449, -4.643943, 0.6503402, -0.128897, 0.572047, 0.28122982
1565633735375, 10.822891, 8.258028, -5.2594633, -4.6128078, 0.66309524, -0.08522116, 0.60720074, 0.25246766
1565633735379, 10.813744, 8.459209, -5.0678616, -4.4379716, 0.67045516, -0.03195793, 0.6359629, 0.20985709
1565633735385, 10.825923, 8.51669, -5.005591, -4.4283915, 0.67251694, 0.043675844, 0.6540724, 0.15020229
1565633735386, 10.823553, 8.53106, -4.897815, -4.514612, 0.6653001, 0.12037488, 0.6487461, 0.08522116
1565633735395, 10.808197, 8.413704, -4.9792457, -4.608018, 0.6327303, 0.1949434, 0.6018744, 0.00958738
1565633735396, 10.7471285, 8.116721, -5.0510964, -4.90979, 0.59466857, 0.26525086, 0.531567, -0.026631612
1565633735410, 10.752594, 7.9562554, -5.005591, -5.221143, 0.5403758, 0.31851408, 0.4261058, -0.094808534
1565633735413, 10.78857, 7.7478886, -5.0487013, -5.5564456, 0.5060298, 0.36325517, 0.3206446, -0.14594123
1565633735417, 10.866194, 7.5467067, -5.108577, -5.9180937, 0.49271566, 0.39521313, 0.21944448, -0.19600865
1565633735420, 10.952284, 7.151529, -5.1804276, -6.478528, 0.48305485, 0.4101268, 0.13209279, -0.21837921
1565633735427, 11.039706, 6.725215, -5.2762284, -6.9862723, 0.45831013, 0.39095205, 0.07563378, -0.22690132
1565633735431, 11.259361, 6.4282327, -5.3552637, -7.534732, 0.42469463, 0.35473305, 0.024501082, -0.23222765
1565633735437, 11.41241, 6.1935205, -5.5875807, -7.788604, 0.36921212, 0.3057309, -0.011717909, -0.2066613
1565633735439, 11.5789385, 5.951624, -5.841453, -8.032896, 0.2957716, 0.24607609, -0.026631612, -0.16192019
1565633735462, 11.889751, 5.7624173, -6.0833497, -8.435259, 0.20924787, 0.16618125, -0.01917476, -0.1257012
1565633735467, 12.005246, 5.6498513, -6.356382, -8.473579, 0.11347941, 0.09374327, 0.002130529, -0.06391586
1565633735468, 11.895922, 5.709727, -6.5360084, -8.135881, 0.038126945, 0.034088463, 0.017044231, -0.0010652645
