TimeStamp(epoch),mAccelerometerMagnitude(m/s^2),mAccelerometerX(m/s^2),mAccelerometerY(m/s^2),mAccelerometerZ(m/s^2),mGyroscopeMagnitude(rad/s),mGyroscopeX(rad/s),mGyroscopeY(rad/s),mGyroscopeZ(rad/s) 
1566316760398, 3.1931431, 2.6321266, 1.0777588, -1.4513819, 3.2597868, -1.4689997, -2.8985846, -0.257794
1566316760408, 3.4570713, 2.7111623, 1.0873389, -1.8489552, 3.3453722, -1.7502295, -2.8442562, -0.19600865
1566316760408, 3.5796964, 2.8524685, 1.0346485, -1.8992506, 3.4769008, -2.0378509, -2.8133633, -0.14487597
1566316760417, 3.9427762, 3.1973512, 0.9053174, -2.1219873, 3.6230166, -2.336125, -2.7675571, -0.096939065
1566316760417, 4.103734, 3.3889527, 0.5556446, -2.2465284, 3.7706542, -2.646117, -2.6855316, -0.06178534
1566316760427, 4.229746, 3.5733693, 0.100590825, -2.2608986, 3.9250991, -2.9475868, -2.5917885, -0.027696876
1566316760427, 4.345625, 3.8080812, -0.30177248, -2.071692, 4.090273, -3.2575786, -2.4735441, -0.00958738
1566316760438, 4.379997, 4.006868, -0.6849756, -1.6310084, 4.2085066, -3.5153728, -2.3137543, 0.014913702
1566316760438, 4.459265, 4.184099, -1.2621753, -0.8861573, 4.3130684, -3.7401435, -2.1475732, 0.04261058
1566316760448, 4.8805103, 4.517007, -1.8465601, 0.07903565, 4.37534, -3.8935416, -1.9952403, 0.054328486
1566316760448, 5.587489, 4.897815, -2.304009, 1.3867164, 4.4092937, -3.983024, -1.8908445, 0.04580637
1566316760458, 6.6001167, 5.225933, -2.694397, 2.9985645, 4.4000106, -3.995807, -1.8418423, 0.035153728
1566316760458, 7.1083465, 5.3959794, -3.0416749, 3.4871485, 4.378971, -3.9542618, -1.881257, -0.008522116
1566316760468, 8.438808, 5.7480474, -3.3410523, 5.1971927, 4.3277617, -3.8338869, -2.0069582, -0.054328486
1566316760469, 9.1343975, 5.688172, -3.5206788, 6.219866, 4.27569, -3.6804886, -2.1731396, -0.113983296
1566316760478, 9.887836, 5.831873, -3.8535867, 6.9934573, 4.2133093, -3.4450653, -2.4192157, -0.17576863
1566316760479, 11.115511, 5.7719975, -3.908672, 8.657996, 4.1613455, -3.1766186, -2.6770096, -0.24394555
1566316760488, 10.348716, 5.513335, -4.0691385, 7.7550735, 4.1968927, -2.9071066, -3.012568, -0.29507825
1566316760489, 11.443585, 5.4342995, -4.0930886, 9.201666, 4.26552, -2.6226811, -3.3481262, -0.32597092
1566316760498, 10.031052, 4.9241605, -4.2343946, 7.6449027, 4.4416256, -2.385127, -3.7326868, -0.32597092
1566316760499, 10.156843, 4.502637, -4.1984696, 8.078402, 4.6546655, -2.1603563, -4.112986, -0.28655612
1566316760509, 8.853635, 4.026028, -4.258345, 6.6365995, 4.9346905, -2.026133, -4.494351, -0.21624869
1566316760509, 8.141067, 3.8416114, -4.528982, 5.5684204, 5.231904, -1.9206718, -4.8650627, -0.12250541
1566316760519, 7.8779874, 3.7506008, -4.567302, 5.2091675, 5.506981, -1.8887138, -5.172924, -0.02130529
1566316760520, 7.0276527, 4.133804, -4.9169755, 2.8500733, 5.799575, -1.9409119, -5.4648066, 0.06178534
1566316760530, 7.4085846, 4.3158255, -4.984036, 3.3793726, 6.0229797, -2.0122845, -5.6746635, 0.1587244
1566316760530, 7.031514, 4.5313773, -5.223538, 1.2741505, 6.230354, -2.122007, -5.8514977, 0.2727077
1566316760539, 7.5402007, 4.742139, -5.4582496, 2.1387525, 6.3553624, -2.2423816, -5.9345884, 0.37816888
1566316760539, 7.4822454, 4.727769, -5.709727, 1.0154883, 6.433855, -2.3734093, -5.9590893, 0.5006743
1566316760549, 7.8591433, 4.8355446, -6.0426345, 1.3675562, 6.5088124, -2.4959147, -5.976134, 0.6487461
1566316760550, 8.128891, 4.758904, -6.3803325, 1.6501685, 6.5309625, -2.630138, -5.92287, 0.809601
1566316760560, 8.355763, 4.799619, -6.7395854, 1.1663746, 6.555125, -2.7451866, -5.8717375, 0.9779128
1566316760560, 8.632674, 4.878655, -6.962322, 1.4992822, 6.551698, -2.8304076, -5.796104, 1.1483551
1566316760570, 9.20577, 5.247488, -7.3622904, 1.7339942, 6.554116, -2.9103024, -5.724731, 1.3092101
1566316760570, 9.875838, 5.719307, -7.7478886, 2.189048, 6.601738, -2.9465215, -5.7194047, 1.4796523
1566316760579, 10.813663, 5.47262, -8.562195, 3.6979103, 6.7220616, -2.9411952, -5.7982345, 1.707619
1566316760579, 10.890488, 5.951624, -8.54064, 3.1997461, 6.8404446, -2.9593046, -5.865346, 1.9057581
1566316760590, 11.724505, 6.6821046, -8.990904, 3.4608033, 6.9332933, -2.9656963, -5.910087, 2.0847225
1566316760591, 12.2367735, 7.3646855, -9.261541, 3.1183155, 6.9991317, -2.9784794, -5.9239354, 2.2413163
1566316760601, 12.763612, 7.709568, -9.613608, 3.3242872, 7.0582466, -2.9795446, -5.9356537, 2.389388
1566316760601, 13.354371, 8.040081, -10.035132, 3.6045046, 7.102881, -2.9518478, -5.9399147, 2.5406556
1566316760610, 13.970753, 8.416099, -10.41115, 3.9948928, 7.1744027, -2.9113677, -5.9718723, 2.7079022
1566316760611, 14.445511, 8.653206, -10.724898, 4.3325906, 7.247965, -2.8740835, -6.0091567, 2.8570392
1566316760620, 15.10679, 9.333391, -11.024276, 4.423601, 7.296127, -2.8016455, -6.0240703, 3.0157638
1566316760620, 16.112537, 10.095008, -11.498489, 5.0487013, 7.3120265, -2.7100327, -6.0176787, 3.1478565
1566316760631, 17.003912, 10.971585, -11.709251, 5.625901, 7.2548914, -2.5875273, -5.956959, 3.2330775
1566316760631, 17.568064, 11.587105, -11.745176, 6.0354495, 7.118866, -2.453304, -5.8152785, 3.2927325
1566316760640, 17.897354, 11.991863, -11.749967, 6.200706, 6.9204144, -2.304167, -5.6011605, 3.3481262
1566316760641, 18.233444, 12.410992, -11.754756, 6.344407, 6.6994147, -2.1454427, -5.3689327, 3.3843453
1566316760651, 18.542221, 12.640914, -11.908037, 6.4976883, 6.494608, -2.0005667, -5.129248, 3.4450653
1566316760651, 18.858618, 12.78701, -12.250525, 6.485713, 6.254677, -1.8492991, -4.8522797, 3.4866107
1566316760661, 19.289997, 12.921131, -12.281661, 7.3694754, 6.017999, -1.7172064, -4.5529404, 3.540939
1566316760661, 18.580591, 12.765454, -12.552298, 4.9720607, 5.8398814, -1.5957662, -4.3111253, 3.601659
1566316760671, 19.060198, 12.73432, -12.492422, 6.71324, 5.676463, -1.4892397, -4.0703754, 3.665575
1566316760672, 18.432892, 12.410992, -12.71995, 4.893025, 5.5777655, -1.4029533, -3.8743668, 3.7593184
1566316760681, 18.638065, 12.315191, -12.7918, 5.6642213, 5.510288, -1.3262542, -3.7103162, 3.8519962
1566316760681, 18.372694, 12.034974, -12.978611, 4.926555, 5.504324, -1.2751216, -3.5739622, 3.987285
1566316760691, 18.429432, 11.999048, -13.337864, 4.2152348, 5.5138693, -1.2186625, -3.46424, 4.112986
1566316760692, 18.758041, 11.972703, -13.551021, 4.988826, 5.5448885, -1.1984226, -3.3396041, 4.261058
1566316760702, 18.646627, 11.994258, -13.941409, 3.0776002, 5.615424, -1.1781825, -3.2501218, 4.4251084
1566316760702, 19.16333, 12.111614, -14.106666, 4.641548, 5.6724257, -1.1568772, -3.1190944, 4.5944858
1566316760711, 18.884968, 11.903248, -14.384488, 2.8357031, 5.781948, -1.1579424, -3.0402648, 4.7798414
1566316760711, 19.334394, 12.0110235, -14.516214, 4.3397756, 5.898096, -1.1100056, -2.9497173, 4.985438
1566316760722, 19.304203, 11.869718, -14.782062, 3.6404297, 6.0288405, -1.0801781, -2.884736, 5.182512
1566316760722, 19.742758, 12.111614, -15.081439, 3.9541774, 6.1899605, -1.0173275, -2.8378644, 5.406217
1566316760732, 20.253925, 12.207415, -15.459851, 4.711004, 6.350849, -0.9331717, -2.7782097, 5.634184
1566316760732, 20.356985, 12.305611, -15.754439, 3.8440065, 6.53497, -0.82877576, -2.7846012, 5.853628
1566316760742, 21.092623, 12.74869, -15.80234, 5.7145166, 6.7003255, -0.69348717, -2.7654266, 6.063485
1566316760742, 21.045597, 13.021722, -16.010706, 4.1242237, 6.859754, -0.55074173, -2.8091023, 6.2339277
1566316760752, 21.76991, 13.491145, -15.979571, 6.047425, 7.016333, -0.37390783, -2.83893, 6.405435
1566316760753, 21.686892, 13.812078, -15.989151, 4.888235, 7.1304827, -0.20985709, -2.8996499, 6.510896
1566316760762, 22.204042, 14.398858, -16.010706, 5.4175344, 7.233656, -0.01917476, -2.9550436, 6.602509
1566316760763, 22.521763, 15.146104, -15.857425, 5.134922, 7.306802, 0.14913702, -3.0136333, 6.654707
1566316760772, 23.030636, 15.993941, -15.766415, 5.101392, 7.3103476, 0.32597092, -3.0317426, 6.6440544
1566316760773, 23.476675, 16.817827, -15.634688, 4.88584, 7.2607727, 0.49960902, -3.0306773, 6.5790734
1566316760779, 23.931183, 17.70638, -15.404766, 4.6774735, 7.147838, 0.67324716, -2.9987195, 6.453372
1566316760780, 24.370127, 18.532661, -15.083834, 4.7876444, 6.98948, 0.8447547, -2.9411952, 6.283995
1566316760789, 24.66926, 19.378103, -14.549745, 4.622388, 6.7827435, 1.0215886, -2.8538435, 6.067746
1566316760793, 25.075495, 20.21636, -14.10906, 4.5840673, 6.516716, 1.1984226, -2.711098, 5.8035607
1566316760803, 25.562105, 21.071383, -13.675562, 4.7325587, 6.177376, 1.3667343, -2.5353293, 5.4648066
1566316760804, 25.853273, 21.80905, -13.083992, 4.643943, 5.799014, 1.5254587, -2.3297334, 5.086638
1566316760812, 25.966728, 22.323978, -12.418177, 4.6583133, 5.385629, 1.6948358, -2.102832, 4.6594667
1566316760813, 26.014696, 22.726341, -11.749967, 4.7133985, 4.9482574, 1.861017, -1.8695391, 4.186489
1566316760823, 25.87594, 22.898783, -11.06978, 4.761299, 4.526042, 2.0240026, -1.6362462, 3.7028592
1566316760823, 25.557455, 22.860462, -10.336905, 4.87147, 4.1222944, 2.17527, -1.4359765, 3.193663
1566316760833, 25.072088, 22.55869, -9.862691, 4.737349, 3.767669, 2.3233418, -1.2197278, 2.7036412
1566316760833, 24.263174, 21.916824, -9.390872, 4.4906616, 3.4766731, 2.4426515, -1.0290455, 2.2498386
1566316760843, 23.343985, 21.155209, -9.079519, 3.8679566, 3.2430713, 2.5513084, -0.84688526, 1.8141453
1566316760844, 22.280869, 20.094215, -8.969349, 3.4943337, 3.0624719, 2.6226811, -0.6956177, 1.4199976
1566316760854, 21.07806, 18.872755, -8.926238, 2.9027638, 2.926552, 2.6642263, -0.53476274, 1.0865698
1566316760855, 19.887735, 17.663269, -8.866363, 2.2177882, 2.8413105, 2.6908581, -0.40373522, 0.8181231
1566316760863, 18.81281, 16.472944, -8.866363, 1.9878663, 2.7347214, 2.6578348, -0.23435818, 0.5997439
1566316760864, 17.748312, 15.390396, -8.818462, 0.61073, 2.6588457, 2.6248116, -0.094808534, 0.4133226
1566316760874, 16.691395, 14.279107, -8.533455, 1.3747413, 2.5751488, 2.5566347, 0.099069595, 0.29188246
1566316760874, 15.777941, 13.280384, -8.480764, -0.80712163, 2.488524, 2.469283, 0.23329292, 0.20240025
1566316760884, 14.917369, 12.502003, -8.111932, 0.6514453, 2.4051175, 2.3638217, 0.41758367, 0.15020229
1566316760885, 14.225506, 11.685301, -7.965835, -1.5376027, 2.3040137, 2.227468, 0.5784386, 0.1107875
1566316760894, 13.576136, 11.146421, -7.7215433, -0.6682105, 2.2154088, 2.0847225, 0.74248934, 0.10333065
1566316760894, 12.98671, 10.423125, -7.599397, -1.5040723, 2.1406193, 1.9206718, 0.9374327, 0.12037488
1566316760903, 12.585147, 9.903406, -7.4988065, -2.0190015, 2.0866537, 1.7640779, 1.103614, 0.1555286
1566316760904, 11.835016, 9.285491, -7.2497244, -1.1352394, 2.0731363, 1.5936357, 1.3102753, 0.2034655
1566316760913, 11.7664, 8.863968, -7.1874537, -2.8668385, 2.0273917, 1.3997575, 1.4402375, 0.27696875
1566316760914, 10.8834715, 8.279583, -6.9096317, -1.468147, 2.0572875, 1.2335763, 1.6096146, 0.34621096
1566316760924, 10.862709, 7.7622585, -6.844966, -3.300337, 2.0596597, 1.0279802, 1.73212, 0.43036684
1566316760924, 10.086332, 7.4580913, -6.5312185, -1.8585353, 2.1060925, 0.85753787, 1.8514296, 0.5219796
1566316760934, 9.911681, 7.074888, -6.4282327, -2.6201515, 2.14211, 0.6583334, 1.9387813, 0.6295713
1566316760935, 9.986051, 7.4269557, -6.2510014, -2.3423293, 2.1149259, 0.50173956, 1.9483687, 0.65194184
1566316760944, 11.174651, 9.287886, -6.0091043, -1.5807129, 2.1166646, 0.3472762, 1.9867182, 0.6423545
1566316760945, 10.933455, 8.641231, -6.262976, -2.3758595, 2.0881338, 0.22370553, 1.9675435, 0.6625945
1566316760954, 9.881466, 7.9394903, -5.865403, -0.4526587, 2.1122935, 0.13848437, 1.9877834, 0.700944
1566316760955, 9.36141, 7.29523, -5.621111, -1.6789087, 2.1051288, 0.04261058, 1.9632823, 0.7584683
1566316760964, 8.773524, 6.806646, -5.43909, -1.0298585, 2.0973825, -0.04580637, 1.9270633, 0.8266452
1566316760965, 8.62105, 6.67971, -5.3959794, -0.7664063, 2.0833898, -0.11504856, 1.8844528, 0.8809737
1566316760975, 8.725369, 6.9168167, -5.2858086, -0.59156984, 2.085661, -0.17789917, 1.8588865, 0.9289106
1566316760976, 9.123669, 7.448511, -5.247488, -0.4742139, 2.0683193, -0.22370553, 1.8333201, 0.9310411
1566316760986, 9.364655, 7.7335186, -5.2810183, 0.016765138, 2.0377674, -0.24607609, 1.8024274, 0.91825795
1566316760986, 9.701863, 8.087981, -5.343289, 0.39996827, 1.9850866, -0.26312032, 1.7544906, 0.8905611
1566316760995, 10.078611, 8.53585, -5.3384986, 0.46702883, 1.9024498, -0.26312032, 1.6863136, 0.8404937
1566316760995, 10.568284, 9.13221, -5.3049684, 0.38559815, 1.8024924, -0.26205507, 1.6223978, 0.74035877
1566316761005, 10.966861, 9.503438, -5.43909, 0.61073, 1.6945425, -0.24607609, 1.5446335, 0.65194184
1566316761006, 11.06693, 9.611214, -5.4055595, 0.9388477, 1.5657798, -0.2066613, 1.4444987, 0.567786
1566316761015, 10.913236, 9.484278, -5.278623, 1.1328443, 1.4502482, -0.165116, 1.3560816, 0.48682585
1566316761016, 10.730784, 9.283096, -5.245093, 1.2094849, 1.3307745, -0.12996227, 1.2634037, 0.39734364
1566316761025, 10.6129675, 9.19448, -5.1828227, 1.1112891, 1.2479377, -0.10546118, 1.1952267, 0.34301516
1566316761025, 10.589187, 9.16095, -5.2283278, 0.93405765, 1.1575053, -0.0777643, 1.1206582, 0.2790993
1566316761035, 10.623199, 9.192085, -5.2858086, 0.6466553, 1.0972669, -0.07137272, 1.0748519, 0.20879184
1566316761036, 10.675082, 9.2328005, -5.3480787, 0.33290774, 1.0359154, -0.0777643, 1.0247844, 0.12996227
1566316761046, 10.668615, 9.208851, -5.384004, 0.17004639, 1.0030663, -0.09054748, 0.9960223, 0.07669904
1566316761047, 10.842171, 9.2256155, -5.695357, -0.059875492, 0.9523208, -0.11717909, 0.94488955, 0.01917476
1566316761056, 10.716394, 8.986114, -5.836663, -0.15567628, 0.9179638, -0.1470065, 0.9054748, -0.034088463
1566316761057, 10.754914, 9.002879, -5.872588, -0.35925296, 0.8927253, -0.19707392, 0.8671253, -0.07882957
1566316761066, 10.774249, 8.986114, -5.9156985, -0.58198977, 0.86589485, -0.24394555, 0.8202536, -0.13209279
1566316761067, 10.754442, 8.976534, -5.8917484, -0.60594, 0.85928226, -0.29614353, 0.7840346, -0.18961707
1566316761076, 10.723901, 8.873548, -5.985154, -0.66342044, 0.8494594, -0.3472762, 0.7392935, -0.23329292
1566316761077, 10.837152, 8.943004, -6.0833497, -0.6777906, 0.85288507, -0.39840892, 0.7030745, -0.2727077
1566316761086, 10.848695, 8.868757, -6.224656, -0.5412744, 0.8492189, -0.43888897, 0.6530071, -0.31957933
1566316761087, 10.983427, 8.904683, -6.4210477, -0.33530274, 0.8353942, -0.4676511, 0.59122175, -0.36005938
1566316761095, 11.228753, 9.036409, -6.6557593, -0.35925296, 0.82497495, -0.49002165, 0.52837116, -0.4016047
1566316761096, 11.303215, 9.048384, -6.7731156, -0.119750984, 0.82009035, -0.5006743, 0.4708469, -0.44741106
1566316761107, 11.624862, 9.350157, -6.9072366, 0.045505375, 0.8147274, -0.51452273, 0.3920173, -0.49534798
1566316761107, 11.875647, 9.565708, -7.0365677, 0.122146, 0.8037567, -0.49960902, 0.31638354, -0.54435015
1566316761117, 12.153132, 9.881851, -7.065308, 0.35925296, 0.83256257, -0.49215218, 0.23648871, -0.628506
1566316761117, 12.446702, 10.090218, -7.27128, 0.48618898, 0.8583923, -0.46232477, 0.18642128, -0.6988135
1566316761123, 12.60445, 10.205178, -7.3766603, 0.55803955, 0.8944454, -0.43569317, 0.11717909, -0.77231675
1566316761124, 12.756015, 10.214759, -7.6017923, 0.7664063, 0.9458115, -0.4048005, 0.051132694, -0.85327685
1566316761132, 12.813856, 10.186019, -7.7287283, 0.84065187, 1.001854, -0.3685815, -0.03195793, -0.9310411
1566316761135, 12.961757, 10.36325, -7.7287283, 0.9364527, 1.0694108, -0.330232, -0.12144015, -1.0098706
1566316761143, 12.869357, 10.142908, -7.8580594, 0.9963282, 1.1430814, -0.28229508, -0.22050974, -1.0855045
1566316761143, 12.910693, 10.056687, -8.035291, 0.9915381, 1.224247, -0.23648871, -0.3270362, -1.1558119
1566316761154, 13.084258, 10.219549, -8.102351, 1.0538087, 1.3084307, -0.18642128, -0.4293016, -1.2218584
1566316761154, 13.295393, 10.277029, -8.387359, 0.89573735, 1.4148263, -0.14807177, -0.5209143, -1.3070794
1566316761163, 13.64817, 10.506951, -8.6627865, 0.91250247, 1.5351378, -0.1107875, -0.62531024, -1.397627
1566316761164, 13.8989935, 10.715318, -8.796907, 0.98914313, 1.660203, -0.06391586, -0.7222493, -1.4935007
1566316761174, 13.946974, 10.736873, -8.844808, 1.0035132, 1.7811859, -0.010652645, -0.82877576, -1.5765914
1566316761174, 14.066307, 10.784774, -8.969349, 1.0490186, 1.9298576, 0.033023197, -0.9416938, -1.6841831
1566316761184, 14.091222, 10.746453, -9.034014, 1.2094849, 2.058086, 0.10013486, -1.0535465, -1.7651432
1566316761184, 14.097436, 10.710527, -9.101074, 1.092129, 2.2030475, 0.15446335, -1.1568772, -1.8684739
1566316761193, 14.254272, 10.763218, -9.283096, 1.0777588, 2.337967, 0.19813919, -1.2655342, -1.9558256
1566316761196, 14.277814, 10.641072, -9.462723, 1.0394385, 2.4704432, 0.24607609, -1.3603427, -2.0474384
1566316761204, 14.460705, 10.748848, -9.625584, 0.96040285, 2.60849, 0.28122982, -1.4583471, -2.1443772
1566316761204, 14.702585, 10.921289, -9.81, 0.8095166, 2.7302134, 0.3121225, -1.5414376, -2.231729
1566316761214, 14.6967535, 10.847044, -9.891431, 0.7041358, 2.8504117, 0.33129725, -1.6085494, -2.3297334
1566316761214, 14.910323, 10.880574, -10.178833, 0.5676197, 2.9579968, 0.3472762, -1.6724652, -2.4149544
1566316761224, 15.09315, 10.962005, -10.36804, 0.37601808, 3.049686, 0.36218992, -1.6895094, -2.5129588
1566316761224, 15.202671, 11.00272, -10.490186, 0.13172609, 3.1245108, 0.3568636, -1.7065537, -2.5928538
1566316761234, 15.4548235, 11.141631, -10.710527, -0.014370117, 3.2038333, 0.33449304, -1.7214674, -2.6812706
1566316761235, 15.4933, 11.129656, -10.777588, -0.12933107, 3.2537959, 0.31851408, -1.7054884, -2.7526433
1566316761244, 15.805946, 11.191927, -11.148816, -0.5221143, 3.3067968, 0.30999196, -1.6543556, -2.8463867
1566316761245, 16.266808, 11.390714, -11.5895, -0.7376661, 3.3602347, 0.28229508, -1.5904398, -2.9465215
1566316761255, 16.293865, 11.223062, -11.795472, -0.6322852, 3.4057255, 0.24501082, -1.5488945, -3.0232205
1566316761255, 16.235348, 10.823093, -12.073294, -0.8262818, 3.4306812, 0.2130529, -1.5009576, -3.077549
1566316761265, 15.891016, 10.277029, -12.066109, -1.1472144, 3.421594, 0.1438107, -1.4594123, -3.0913975
1566316761265, 15.445644, 9.766891, -11.915223, -1.096919, 3.3960955, 0.056459017, -1.4349113, -3.077549
1566316761274, 15.161701, 9.570498, -11.730806, -0.81909674, 3.353646, -0.023435818, -1.406149, -3.0445259
1566316761275, 15.015, 9.513018, -11.601475, -0.5987549, 3.2995913, -0.10759171, -1.3369069, -3.0146985
1566316761284, 15.047085, 9.534574, -11.61824, -0.7232959, 3.210387, -0.17896444, -1.1845741, -2.9784794
1566316761285, 15.269397, 9.575289, -11.845767, -1.0705738, 3.1228333, -0.27164245, -0.9981528, -2.9465215
1566316761295, 15.3457, 9.532178, -11.936778, -1.463357, 3.0498493, -0.36112466, -0.7797736, -2.9262815
1566316761295, 15.33075, 9.457932, -11.970308, -1.5136524, 2.9624996, -0.4644553, -0.5699165, -2.8698225
1566316761310, 15.167945, 9.038804, -12.075689, -1.5950831, 2.9049065, -0.56459016, -0.35579833, -2.8272119
1566316761311, 14.926245, 8.840017, -11.924803, -1.5639478, 2.859327, -0.6625945, -0.1555286, -2.7771444
1566316761315, 14.682336, 8.504715, -11.855348, -1.6405884, 2.8084497, -0.7637946, 0.00958738, -2.702576
1566316761315, 14.265218, 8.054451, -11.654165, -1.6741188, 2.7719414, -0.86179894, 0.13315806, -2.6312032
1566316761326, 13.810771, 7.680828, -11.381133, -1.4873072, 2.7275603, -0.9576728, 0.21411815, -2.5449169
1566316761326, 13.321826, 7.359895, -11.033855, -1.2478052, 2.6822627, -1.0524813, 0.2609898, -2.453304
1566316761341, 12.996721, 7.0988383, -10.849439, -0.90052736, 2.629441, -1.128115, 0.27164245, -2.3595607
1566316761342, 12.603303, 6.8737063, -10.552457, -0.49097902, 2.571111, -1.1877699, 0.27483824, -2.263687
1566316761353, 12.49733, 6.962322, -10.37762, -0.119750984, 2.5259397, -1.2314457, 0.25885928, -2.1901836
1566316761353, 12.443185, 7.094048, -10.219549, 0.26105714, 2.4636805, -1.2431636, 0.2396845, -2.1134846
1566316761357, 12.433592, 7.206614, -10.109378, 0.6777906, 2.414643, -1.2548815, 0.21518342, -2.0516994
1566316761357, 12.45701, 7.2760696, -10.059082, 1.0250684, 2.369569, -1.2389026, 0.19813919, -2.010154
1566316761373, 12.469802, 7.422166, -9.915381, 1.4465919, 2.3189347, -1.2080098, 0.18535602, -1.9707392
1566316761374, 12.404692, 7.5012016, -9.745335, 1.6238233, 2.2695494, -1.1632688, 0.17470337, -1.9409119
1566316761375, 12.364017, 7.6520877, -9.524993, 1.8944606, 2.2257383, -1.1068097, 0.16618125, -1.9238676
1566316761377, 12.104306, 7.551497, -9.216036, 2.1339624, 2.1681063, -1.0354371, 0.17044231, -1.897236
1566316761386, 11.909936, 7.585027, -8.851993, 2.440525, 2.1267402, -0.9502159, 0.16937704, -1.8951055
1566316761386, 11.656205, 7.486831, -8.54543, 2.6057813, 2.0698826, -0.86392945, 0.16405073, -1.8738002
1566316761396, 11.524342, 7.4892263, -8.270002, 2.8859987, 2.0417273, -0.76912093, 0.14807177, -1.8855181
1566316761396, 11.348556, 7.443721, -7.9634404, 3.1566358, 2.0080588, -0.66579026, 0.11717909, -1.8908445
1566316761412, 11.176864, 7.4006104, -7.7335186, 3.2165112, 1.994292, -0.5613944, 0.07563378, -1.9121497
1566316761412, 11.211526, 7.561077, -7.541917, 3.412903, 1.9769857, -0.4314321, 0.023435818, -1.929194
1566316761422, 11.206058, 7.6161623, -7.460486, 3.4512234, 1.976301, -0.32384038, -0.024501082, -1.9494339
1566316761422, 11.255189, 7.678433, -7.422166, 3.5542092, 1.999649, -0.18748654, -0.060720075, -1.9899141
1566316761429, 11.4651, 7.94907, -7.4652762, 3.539839, 2.0328557, -0.06391586, -0.101200126, -2.0293288
1566316761430, 11.546349, 8.078402, -7.4964113, 3.4440382, 2.0905526, 0.05965481, -0.12783173, -2.0857878
1566316761437, 11.713719, 8.265213, -7.599397, 3.3386574, 2.1644552, 0.1768339, -0.15233281, -2.1518342
1566316761437, 11.842426, 8.387359, -7.704778, 3.2452517, 2.2446644, 0.29933932, -0.1587244, -2.218946
1566316761447, 11.841499, 8.432864, -7.7718387, 2.9506643, 2.3247855, 0.39947417, -0.15446335, -2.2849922
1566316761447, 12.070781, 8.55501, -8.049661, 2.7782228, 2.4034271, 0.49747851, -0.1470065, -2.3467777
1566316761463, 11.984818, 8.435259, -8.167017, 2.4045997, 2.4935355, 0.5837649, -0.13848437, -2.420281
1566316761463, 11.973986, 8.361013, -8.310719, 2.0980372, 2.5732338, 0.6508766, -0.12676647, -2.4863272
1566316761466, 11.989359, 8.291558, -8.485555, 1.7292042, 2.638469, 0.7030745, -0.1107875, -2.5406556
1566316761467, 11.882752, 8.078402, -8.62207, 1.2645704, 2.7070956, 0.7318367, -0.094808534, -2.6045716
1566316761477, 11.724332, 7.810159, -8.698711, 0.8909473, 2.744395, 0.7552725, -0.066046394, -2.6375947
1566316761478, 11.432714, 7.462881, -8.641231, 0.5843848, 2.7769294, 0.76272935, -0.05539375, -2.6695528
1566316761488, 11.405449, 7.3718705, -8.701106, 0.17483643, 2.8043683, 0.7552725, -0.040480047, -2.7004454
1566316761488, 11.174358, 7.0437527, -8.674761, -0.019160157, 2.811434, 0.7435546, -0.035153728, -2.711098
1566316761497, 10.972942, 6.7635355, -8.638836, -0.17483643, 2.8139873, 0.73822826, -0.01917476, -2.7153592
1566316761497, 10.790294, 6.473738, -8.626861, -0.31374758, 2.795399, 0.70627034, 0.0, -2.7047064
1566316761510, 10.539019, 6.2342362, -8.485555, -0.44786867, 2.7739627, 0.67324716, 0.029827405, -2.6908581
1566316761511, 10.391035, 5.973179, -8.47837, -0.64186525, 2.7400112, 0.6423545, 0.051132694, -2.663161
1566316761517, 10.020664, 5.647456, -8.262817, -0.49576905, 2.6999745, 0.60933125, 0.080960095, -2.6290727
1566316761518, 9.785062, 5.3552637, -8.159832, -0.69695073, 2.6531024, 0.5752428, 0.112918034, -2.5875273
1566316761527, 9.598937, 5.158872, -8.054451, -0.80712163, 2.595631, 0.535828, 0.12996227, -2.5363946
1566316761528, 9.33514, 5.029541, -7.831714, -0.7161109, 2.5436618, 0.49960902, 0.15126756, -2.489523
1566316761541, 9.152049, 4.7948294, -7.7550735, -0.7927515, 2.4725826, 0.4708469, 0.17044231, -2.4213462
1566316761541, 8.965641, 4.756509, -7.558682, -0.79035646, 2.4120104, 0.42717105, 0.19387813, -2.3659523
1566316761548, 8.752511, 4.591253, -7.391031, -0.9484278, 2.348347, 0.37603834, 0.21092236, -2.308428
1566316761548, 8.628651, 4.4499464, -7.3072047, -1.1208692, 2.2788281, 0.3291667, 0.23755397, -2.2423816
1566316761558, 8.512244, 4.380491, -7.2185893, -1.0777588, 2.221537, 0.26844665, 0.26631612, -2.1891184
1566316761559, 8.387246, 4.25595, -7.101233, -1.343606, 2.1740587, 0.2066613, 0.28442562, -2.1454427
1566316761568, 8.282972, 4.2751102, -6.962322, -1.3627661, 2.1080902, 0.13528858, 0.3121225, -2.0804615
1566316761569, 8.1210375, 4.136199, -6.8186207, -1.5328126, 2.045388, 0.060720075, 0.32384038, -2.018676
1566316761578, 8.019852, 3.9948928, -6.7803006, -1.5447876, 1.9886367, -0.011717909, 0.3355583, -1.9600866
1566316761579, 7.8350782, 3.908672, -6.6174393, -1.5232325, 1.9335316, -0.096939065, 0.36005938, -1.897236
1566316761588, 7.8161125, 3.7482057, -6.67013, -1.5974782, 1.8753039, -0.17896444, 0.3834952, -1.8269285
1566316761589, 7.6498375, 3.5613942, -6.557564, -1.6836988, 1.821998, -0.26312032, 0.40586576, -1.7566211
1566316761598, 7.4844594, 3.3650026, -6.480923, -1.6405884, 1.772635, -0.34301516, 0.43782368, -1.6831179
1566316761599, 7.445885, 3.2165112, -6.4976883, -1.695674, 1.7045183, -0.42290998, 0.46978164, -1.582983
1566316761608, 7.203105, 3.05844, -6.332432, -1.5591577, 1.6464337, -0.50173956, 0.4910869, -1.4892397
1566316761609, 7.0738883, 2.931504, -6.2438164, -1.5687379, 1.5970376, -0.56885123, 0.5230448, -1.397627
1566316761618, 6.8139763, 2.7758276, -6.0761647, -1.343606, 1.5375913, -0.6263755, 0.5571333, -1.28897
1566316761619, 6.683679, 2.5004005, -6.0689797, -1.2597803, 1.4765688, -0.68816084, 0.56885123, -1.176052
1566316761629, 6.4375577, 2.2848487, -5.949229, -0.91010743, 1.415373, -0.7350325, 0.58269966, -1.0599382
1566316761629, 6.1869597, 2.095642, -5.7696023, -0.77359134, 1.3473452, -0.76272935, 0.59228706, -0.9395633
1566316761639, 6.0004745, 2.0501368, -5.589976, -0.7448511, 1.3010132, -0.8042747, 0.59761333, -0.829841
1566316761639, 5.8230796, 1.84177, -5.5061502, -0.44547364, 1.241472, -0.83729786, 0.5944176, -0.69774824
1566316761650, 5.7091312, 1.9136207, -5.376819, -0.14849122, 1.1712407, -0.83942837, 0.56245965, -0.59228706
1566316761651, 5.806861, 2.411785, -5.2810183, -0.117355965, 1.1203594, -0.8479505, 0.55074173, -0.4825648
1566316761659, 5.5819416, 1.9447559, -5.221143, 0.34009278, 1.0386224, -0.82557994, 0.5230448, -0.35153726
1566316761660, 5.301739, 1.6262183, -5.012776, 0.57959473, 0.95696926, -0.7978831, 0.4825648, -0.21518342
1566316761672, 5.2309084, 1.4298267, -4.974456, 0.7568262, 0.88627183, -0.76485986, 0.44315, -0.06391586
1566316761673, 5.1770573, 1.1591895, -4.9529004, 0.9627979, 0.82428277, -0.7233146, 0.386691, 0.082025364
1566316761680, 5.322969, 1.5519727, -4.9529004, 1.1807446, 0.78190774, -0.6689861, 0.33662358, 0.2247708
1566316761681, 5.40665, 1.9184108, -4.90979, 1.2022998, 0.7503614, -0.5965481, 0.30040458, 0.34194988
1566316761692, 5.3973484, 2.0142114, -4.8163843, 1.3699512, 0.7300824, -0.53476274, 0.23329292, 0.43888897
1566316761693, 5.311473, 2.1219873, -4.5696974, 1.6813037, 0.7399111, -0.45486793, 0.19600865, 0.5496765
1566316761702, 5.232057, 2.2632935, -4.423601, 1.6381935, 0.7612439, -0.3749731, 0.13422333, 0.6487461
1566316761703, 5.270935, 2.44292, -4.368516, 1.6525636, 0.77580076, -0.28549087, 0.07989483, 0.716923
1566316761711, 5.3587275, 2.7375073, -4.287085, 1.6860938, 0.82630265, -0.2130529, 0.027696876, 0.7978831
1566316761712, 5.460962, 2.9099488, -4.3182206, 1.6453785, 0.883155, -0.112918034, -0.02130529, 0.87564737
1566316761720, 5.6007223, 2.9961696, -4.4643164, 1.5687379, 0.9347591, -0.029827405, -0.0777643, 0.9310411
1566316761721, 5.714405, 3.1111305, -4.509822, 1.6238233, 1.0061613, 0.060720075, -0.12037488, 0.99708754
1566316761731, 5.643425, 3.0991554, -4.485872, 1.456172, 1.0883567, 0.1438107, -0.17044231, 1.0652645
1566316761732, 5.646941, 3.1015503, -4.5529323, 1.2406201, 1.1767666, 0.22264028, -0.2247708, 1.1334413
1566316761743, 5.592888, 3.1542408, -4.509822, 0.9963282, 1.2646579, 0.28229508, -0.28442562, 1.1994878
1566316761744, 5.5815454, 3.295547, -4.4451566, 0.73048097, 1.3455609, 0.34088463, -0.34194988, 1.2559468
1566316761751, 5.487964, 3.2572267, -4.409231, 0.25866213, 1.4128468, 0.3685815, -0.38242993, 1.3092101
1566316761752, 5.5171423, 3.4488282, -4.3062453, 0.026345216, 1.4879762, 0.39414784, -0.43675843, 1.3667343
1566316761761, 5.622713, 3.6092947, -4.3014555, -0.2921924, 1.5207688, 0.4101268, -0.47617322, 1.3848438
1566316761762, 5.9550657, 4.0044727, -4.385281, -0.44307864, 1.5580711, 0.41545314, -0.5006743, 1.4157364
1566316761775, 6.2059474, 4.148174, -4.5577226, -0.73048097, 1.5719165, 0.4079963, -0.49854377, 1.433846
1566316761776, 6.425148, 4.414021, -4.5840673, -0.8861573, 1.5768853, 0.3888215, -0.5049353, 1.442368
1566316761782, 6.761726, 4.646338, -4.766089, -1.1903248, 1.5755525, 0.36325517, -0.47617322, 1.4572818
1566316761783, 7.061727, 4.8044095, -4.9289503, -1.5783179, 1.5669334, 0.33449304, -0.43782368, 1.4668691
1566316761794, 7.4631243, 4.991221, -5.261858, -1.7603394, 1.555765, 0.2727077, -0.38775626, 1.4817829
1566316761795, 7.7875147, 5.132527, -5.5660257, -1.8226099, 1.5476431, 0.2066613, -0.3206446, 1.4998924
1566316761805, 7.811944, 4.993616, -5.601951, -2.1698878, 1.551887, 0.13635385, -0.26312032, 1.5233282
1566316761806, 7.9793644, 4.8211746, -5.8438478, -2.5051906, 1.5754732, 0.040480047, -0.17789917, 1.5648735
1566316761813, 8.106255, 4.6128078, -5.997129, -2.9099488, 1.6210706, -0.070307456, -0.08948222, 1.6170714
1566316761815, 8.373838, 4.591253, -6.239026, -3.180586, 1.7093093, -0.18642128, 0.007456851, 1.6990968
1566316761823, 8.60965, 4.3637257, -6.607859, -3.3793726, 1.8274707, -0.30360037, 0.101200126, 1.7992316
1566316761825, 8.822653, 4.394861, -6.878496, -3.3482375, 1.9610685, -0.40906155, 0.19600865, 1.9078887
1566316761834, 9.154566, 4.4355764, -7.2976246, -3.297942, 2.1195168, -0.5091964, 0.2908172, 2.0367856
1566316761836, 9.460239, 4.641548, -7.7071733, -2.924319, 2.2693305, -0.59867865, 0.3653857, 2.1582258
1566316761843, 9.757091, 4.799619, -8.080796, -2.6201515, 2.4282565, -0.6679208, 0.43036684, 2.2945797
1566316761845, 10.046549, 5.0343313, -8.420889, -2.1627028, 2.5861027, -0.7126619, 0.4676511, 2.441586
1566316761854, 10.358854, 5.245093, -8.760982, -1.7435743, 2.7149382, -0.74675035, 0.47723848, 2.5662222
1566316761856, 11.208604, 5.848638, -9.467513, -1.3388159, 2.8072677, -0.8159926, 0.40266997, 2.6557043
1566316761864, 11.111939, 5.894143, -9.369317, -0.974773, 2.931869, -0.8852348, 0.39095205, 2.7675571
1566316761866, 10.326119, 6.119275, -8.061636, -2.047742, 3.2498155, -0.9470201, 0.6924219, 3.0306773
1566316761875, 9.730361, 6.2989016, -6.569539, -3.4416432, 3.7776735, -1.135572, 0.93636745, 3.4791536
1566316761876, 10.040142, 7.1299734, -5.728887, -4.140989, 4.4579787, -1.4679344, 1.1430287, 4.051201
1566316761884, 10.920296, 8.176597, -5.0678616, -5.1684523, 5.1914663, -1.9281287, 1.406149, 4.6104646
1566316761885, 13.824469, 10.32014, -6.205496, -6.7898808, 5.795701, -2.3957798, 1.8375812, 4.9470882
1566316761895, 16.590385, 12.616963, -7.7598634, -7.472461, 6.21957, -2.7537086, 2.4991105, 4.985438
1566316761897, 19.828403, 14.63836, -10.693763, -8.032896, 6.5280724, -3.0754185, 3.1531827, 4.818191
1566316761903, 21.593954, 15.179634, -12.969031, -8.226892, 6.835406, -3.3481262, 3.7731667, 4.612595
1566316761904, 22.61827, 14.870677, -14.892232, -8.286768, 6.8275976, -3.4791536, 4.144944, 4.1630535
1566316761915, 23.744102, 15.3736315, -17.09086, -5.944439, 6.945929, -3.6155076, 4.736166, 3.5697012
1566316761919, 24.612816, 14.825171, -18.082397, -7.683223, 6.9944353, -3.904194, 4.9034123, 3.1041806
1566316761927, 22.972752, 13.888719, -17.414188, -5.621111, 6.772916, -4.20886, 4.51246, 2.7920582
1566316761928, 20.716576, 12.631333, -16.310083, -1.8992506, 6.390059, -4.3718452, 3.8818238, 2.5790052
1566316761933, 18.397057, 10.868599, -14.834752, 0.50534916, 6.0010324, -4.405934, 3.2053807, 2.5150893
1566316761934, 16.220556, 9.129815, -13.177398, 2.4716604, 5.596306, -4.3121905, 2.4863272, 2.5577
1566316761944, 15.196546, 7.8868, -12.25771, 4.2990603, 5.1872697, -3.9617186, 1.9579561, 2.7164245
1566316761945, 16.222118, 4.996011, -10.617122, 11.201507, 4.642559, -3.3641052, 1.2314457, 2.952913
1566316761954, 18.239082, 5.4582496, -10.471025, 13.900694, 4.296654, -2.928412, 0.20879184, 3.137204
1566316761954, 19.489838, 9.175321, -12.063714, 12.25292, 4.109383, -2.4746094, -0.6743124, 3.2107072
1566316761965, 21.064852, 11.443404, -12.84449, 12.15712, 4.0134797, -1.9217371, -1.3166668, 3.2682314
1566316761966, 21.511307, 12.118799, -12.966637, 12.154725, 3.9246106, -1.3038837, -1.6724652, 3.3023198
1566316761974, 20.876839, 11.891273, -12.516373, 11.737991, 3.8950489, -0.6785734, -1.8919097, 3.3364084
1566316761975, 19.920822, 11.407478, -11.886482, 11.199112, 3.9693065, -0.14168017, -2.0410466, 3.4013894
1566316761983, 18.489155, 11.141631, -11.2302475, 9.570498, 4.083346, 0.24181503, -2.1273332, 3.4770231
1566316761984, 17.522842, 11.520044, -10.782378, 7.6209526, 4.1602135, 0.50813115, -2.1624868, 3.5175033
1566316761993, 17.263342, 12.351116, -10.691368, 5.582791, 4.1299434, 0.69029135, -2.0836573, 3.4983284
1566316761994, 17.687084, 13.476775, -10.789563, 3.8464015, 3.9937031, 0.8032094, -1.9419771, 3.396063
1566316762004, 18.316832, 14.506634, -10.935659, 2.339934, 3.785329, 0.8724516, -1.7491642, 3.2415998
1566316762005, 18.963148, 15.25867, -11.170372, 1.4130616, 3.5536022, 0.8969527, -1.5819178, 3.053048
1566316762014, 19.376461, 15.680194, -11.354788, 0.8047266, 3.3064039, 0.89375687, -1.4295849, 2.8442562
1566316762015, 19.544018, 15.955621, -11.273357, 0.5460645, 3.0758853, 0.8841695, -1.3124058, 2.6375947
1566316762024, 19.361677, 15.9364605, -10.98356, 0.51492923, 2.8469384, 0.8788432, -1.2229236, 2.4160197
1566316762025, 19.104557, 15.809525, -10.710527, 0.5724097, 2.6546412, 0.8767126, -1.176052, 2.2125542
1566316762034, 18.745668, 15.613133, -10.322535, 1.0370435, 2.5072083, 0.902279, -1.1579424, 2.0325246
1566316762035, 18.462847, 15.411951, -10.035132, 1.6262183, 2.393974, 0.92997587, -1.1877699, 1.8588865
1566316762044, 18.09183, 15.088624, -9.7740755, 2.0285816, 2.3285546, 0.9896307, -1.2516857, 1.695901
1566316762045, 17.789537, 14.738951, -9.666299, 2.4069948, 2.3087869, 1.0748519, -1.3401027, 1.5425029
1566316762055, 17.632353, 14.544954, -9.587264, 2.7255323, 2.3357666, 1.1696603, -1.4413028, 1.417867
1566316762056, 17.616592, 14.456339, -9.616004, 2.9817994, 2.3901548, 1.2761868, -1.5520903, 1.2942963
1566316762064, 17.500446, 14.338983, -9.515413, 3.180586, 2.4661424, 1.3891048, -1.6618125, 1.1792477
1566316762065, 17.464058, 14.279107, -9.536968, 3.1853762, 2.5548344, 1.5030881, -1.7757958, 1.055677
1566316762074, 17.242462, 14.178516, -9.321417, 3.06323, 2.6646388, 1.6117451, -1.9036276, 0.9374327
1566316762079, 16.931023, 13.919854, -9.2256155, 2.7901978, 2.7424197, 1.6948358, -1.9973708, 0.8117315
1566316762085, 16.370882, 13.668377, -8.732242, 2.2201831, 2.784129, 1.7353158, -2.0655477, 0.68816084
1566316762086, 15.721722, 13.32589, -8.207732, 1.4920973, 2.7541482, 1.7235979, -2.07407, 0.5592638
1566316762097, 15.060465, 12.873231, -7.7862086, 0.68737066, 2.6883326, 1.6969663, -2.0410466, 0.4261058
1566316762099, 14.572927, 12.559483, -7.391031, 0.047900394, 2.5827568, 1.639442, -1.973935, 0.294013
1566316762106, 13.979775, 12.159514, -6.8856816, -0.40954837, 2.4641008, 1.5606124, -1.8993665, 0.16937704
1566316762107, 13.552222, 11.836187, -6.576724, -0.5604346, 2.3238595, 1.4636734, -1.804558, 0.039414786
1566316762115, 12.996472, 11.417059, -6.1719656, -0.6825806, 2.1873305, 1.3763217, -1.6969663, -0.10226539
1566316762117, 12.524188, 11.129656, -5.721702, -0.4981641, 2.0634067, 1.2879047, -1.598962, -0.20559604
1566316762125, 12.017911, 10.734478, -5.384004, -0.4622388, 1.9421983, 1.216532, -1.4796523, -0.3206446
1566316762127, 11.509664, 10.30577, -5.120552, -0.2083667, 1.8344984, 1.1483551, -1.3699301, -0.41225734
1566316762136, 10.915551, 9.754915, -4.897815, -0.047900394, 1.7387785, 1.0908308, -1.2559468, -0.50600064
1566316762137, 10.336645, 9.208851, -4.6942387, 0.086220704, 1.6434158, 1.0428939, -1.139833, -0.5603291
1566316762145, 10.169408, 8.995694, -4.734954, 0.27303225, 1.581638, 1.0120013, -1.0365024, -0.6348976
1566316762148, 9.826499, 8.679551, -4.5768824, 0.52690434, 1.5255908, 0.9981528, -0.92997587, -0.6828345
1566316762157, 9.384599, 8.200547, -4.485872, 0.83586186, 1.5260392, 1.0120013, -0.85966843, -0.7520767
1566316762158, 8.99605, 7.793394, -4.3349857, 1.1831397, 1.5344683, 1.0333065, -0.8021441, -0.8021441
1566316762166, 8.696046, 7.4844365, -4.191284, 1.4274317, 1.5601978, 1.0737866, -0.7616641, -0.83729786
1566316762167, 8.367073, 7.173084, -3.906277, 1.8154249, 1.6092885, 1.0908308, -0.76912093, -0.8990832
1566316762177, 9.041317, 7.793394, -4.4738965, 0.9963282, 1.6443021, 1.1046792, -0.7456851, -0.96299905
1566316762179, 8.448541, 7.3838453, -3.9469924, 1.1304493, 1.7026622, 1.1526161, -0.7137272, -1.0301107
1566316762186, 7.38941, 6.1791506, -3.4464333, 2.1315675, 1.7879676, 1.2538162, -0.73290193, -1.0428939
1566316762187, 6.989846, 5.5636306, -3.2284865, 2.7351124, 1.8871893, 1.3401027, -0.813862, -1.0503508
1566316762196, 7.1298623, 5.839058, -3.166216, 2.5914114, 1.9991705, 1.4093449, -0.9321064, -1.0684602
1566316762198, 7.434375, 6.212681, -3.3985329, 2.2632935, 2.1226394, 1.4817829, -1.0460896, -1.1025487
1566316762207, 7.54716, 6.2342362, -3.7529957, 2.0022364, 2.2457292, 1.5542208, -1.1419635, -1.1504856
1566316762208, 7.611417, 6.246211, -4.016448, 1.6693287, 2.3489573, 1.6000272, -1.2261194, -1.2058793
1566316762216, 7.492949, 6.100115, -4.191284, 1.1687696, 2.4279869, 1.6373115, -1.2815131, -1.2538162
1566316762218, 7.5069733, 6.1384354, -4.272715, 0.6466553, 2.4703722, 1.6362462, -1.3177321, -1.2996227
1566316762227, 7.449256, 6.1504107, -4.1984696, 0.19160157, 2.4978874, 1.6245283, -1.3379722, -1.3454291
1566316762229, 7.3770766, 6.0043144, -4.282295, -0.17723145, 2.5146132, 1.5947009, -1.3592775, -1.3901701
1566316762236, 7.271619, 5.855823, -4.29427, -0.38080812, 2.524953, 1.551025, -1.3986923, -1.4189322
1566316762238, 7.350264, 5.640271, -4.663103, -0.6849756, 2.528812, 1.4966966, -1.4349113, -1.4476944
1566316762246, 7.36855, 5.616321, -4.641548, -1.099314, 2.516218, 1.4370418, -1.4487597, -1.4721955
1566316762247, 7.3304987, 5.47262, -4.687053, -1.3483961, 2.47947, 1.361408, -1.4530207, -1.4775218
1566316762256, 7.2901964, 5.3073635, -4.8044095, -1.3771362, 2.4258943, 1.2868395, -1.442368, -1.4658039
1566316762259, 7.461605, 5.336104, -5.0439115, -1.3268409, 2.3749304, 1.212271, -1.4263891, -1.4615428
1566316762266, 7.5672846, 5.374424, -5.1684523, -1.2909156, 2.3535585, 1.1419635, -1.4444987, -1.4658039
1566316762267, 7.628918, 5.2810183, -5.343289, -1.3268409, 2.3137913, 1.0620687, -1.4519554, -1.4551512
1566316762277, 7.596641, 5.151687, -5.4247193, -1.3196558, 2.2697933, 0.9672601, -1.4551512, -1.4487597
1566316762278, 7.6637745, 5.000801, -5.6187162, -1.468147, 2.207805, 0.8767126, -1.438107, -1.4274544
1566316762290, 7.6373196, 4.88105, -5.654641, -1.590293, 2.1573398, 0.77444726, -1.4370418, -1.4104102
1566316762290, 7.71144, 4.8427296, -5.7552323, -1.7004639, 2.068135, 0.65513766, -1.4040185, -1.3699301
1566316762297, 7.9527755, 4.89542, -5.980364, -1.8753004, 1.9861939, 0.55606806, -1.3709954, -1.325189
1566316762298, 8.2726755, 4.967271, -6.3012967, -2.0142114, 1.9044098, 0.43888897, -1.3262542, -1.2942963
1566316762307, 8.539044, 5.010381, -6.586304, -2.1052222, 1.8308488, 0.294013, -1.284709, -1.2708606
1566316762308, 8.665027, 5.1564775, -6.6461797, -2.078877, 1.7694072, 0.16298546, -1.2399678, -1.2516857
1566316762317, 8.759035, 5.142107, -6.7467704, -2.1818628, 1.7064918, 0.026631612, -1.1899004, -1.2229236
1566316762320, 8.761992, 5.2091675, -6.70366, -2.1674929, 1.6934828, -0.112918034, -1.1781825, -1.2112057
1566316762328, 8.682053, 5.2834134, -6.600674, -1.9734962, 1.7918246, -0.23009712, -1.3081448, -1.2026836
1566316762329, 8.669505, 5.633086, -6.437813, -1.4082716, 1.7981691, -0.36005938, -1.2942963, -1.1952267
1566316762339, 9.0969, 5.465435, -6.8425713, -2.4620802, 1.7480263, -0.53795856, -1.176052, -1.176052
1566316762340, 9.741312, 5.7887626, -7.1874537, -3.1183155, 1.6597575, -0.77870834, -0.9054748, -1.1526161
1566316762350, 10.470672, 6.219866, -7.664063, -3.4943337, 1.6686873, -0.98430437, -0.70840085, -1.1462245
1566316762353, 10.299713, 6.3947024, -7.704778, -2.4141798, 1.7265981, -1.1174624, -0.6412892, -1.1494204
1566316762358, 10.259736, 6.6437845, -7.7430983, -1.0801538, 1.7693772, -1.2080098, -0.6295713, -1.1291803
1566316762359, 10.818406, 7.082073, -8.145462, -0.73048097, 1.8263483, -1.2996227, -0.6114618, -1.128115
1566316762368, 11.480937, 7.3551054, -8.760982, -0.97956306, 1.8972552, -1.4114754, -0.53263223, -1.1504856
1566316762369, 12.243474, 7.7311234, -9.383687, -1.4418018, 1.9981287, -1.5606124, -0.4346279, -1.1696603
1566316762378, 12.640634, 7.798184, -9.826766, -1.5519727, 2.0741193, -1.6905746, -0.32490566, -1.1568772
1566316762379, 12.985771, 7.9227247, -10.174044, -1.5328126, 2.177679, -1.8386464, -0.2130529, -1.1472899
1566316762389, 13.4254675, 8.080796, -10.626702, -1.4202466, 2.288925, -1.9792614, -0.112918034, -1.144094
1566316762391, 13.815136, 8.205338, -11.02667, -1.3939015, 2.403439, -2.1198764, 0.01917476, -1.1323761
1566316762399, 14.10259, 8.262817, -11.338023, -1.4346168, 2.5351555, -2.2668827, 0.13422333, -1.1270498
1566316762400, 14.282174, 8.284373, -11.5751295, -1.1687696, 2.6663163, -2.4074976, 0.26312032, -1.1153319
1566316762409, 14.406862, 8.231683, -11.776312, -1.0562036, 2.7952275, -2.5363946, 0.38456047, -1.1100056
1566316762410, 14.411145, 8.123906, -11.879297, -0.75203615, 2.9096797, -2.6525085, 0.49747851, -1.087635
1566316762419, 14.421497, 8.176597, -11.874507, -0.34488282, 3.0154996, -2.7547739, 0.6061355, -1.0663297
1566316762421, 14.404395, 7.9969707, -11.979888, 0.13172609, 3.0978937, -2.8346686, 0.7105314, -1.0279802
1566316762429, 14.385996, 7.9083548, -12.006233, 0.51492923, 3.1733258, -2.8975194, 0.82344943, -0.9981528
1566316762430, 14.342661, 7.7287283, -12.037369, 1.0394385, 3.2387428, -2.9454563, 0.9214538, -0.9821738
1566316762439, 14.365915, 7.6353226, -12.087664, 1.4034815, 3.2651877, -2.9625003, 1.0120013, -0.92784536
1566316762441, 14.385958, 7.3718705, -12.19065, 1.9998415, 3.275585, -2.9582393, 1.1057445, -0.8692558
1566316762450, 14.568363, 7.3814507, -12.324771, 2.4189699, 3.2689831, -2.928412, 1.200553, -0.8181231
1566316762451, 14.84828, 7.4892263, -12.530743, 2.7135572, 3.2437022, -2.876214, 1.2697952, -0.7978831
1566316762459, 15.100245, 7.6017923, -12.672049, 3.1063404, 3.2148588, -2.8112328, 1.3603427, -0.76272935
1566316762460, 15.211394, 7.654483, -12.724739, 3.297942, 3.173623, -2.7302728, 1.4444987, -0.7286409
1566316762471, 15.37176, 7.695198, -12.758269, 3.781736, 3.08454, -2.610963, 1.4796523, -0.7126619
1566316762472, 15.469349, 7.795789, -12.73432, 4.045188, 2.9745207, -2.485262, 1.4764565, -0.700944
1566316762479, 15.236717, 7.4988065, -12.542718, 4.3134303, 2.8338008, -2.3382554, 1.4583471, -0.660464
1566316762480, 15.006302, 7.089258, -12.375067, 4.6678934, 2.6510782, -2.1582258, 1.4082797, -0.6221144
1566316762489, 14.642106, 6.5479836, -12.102035, 5.005591, 2.4236228, -1.9547603, 1.3283848, -0.5368933
1566316762491, 14.422439, 6.0665846, -11.920012, 5.3959794, 2.1751068, -1.748099, 1.2101405, -0.45912898
1566316762501, 14.318464, 5.767207, -11.845767, 5.606741, 1.871673, -1.4977618, 1.0652645, -0.3536678
1566316762503, 14.225368, 5.604346, -11.721226, 5.7935524, 1.5606517, -1.2389026, 0.9139969, -0.25566345
1566316762510, 14.019507, 5.479805, -11.441009, 5.968389, 1.2330642, -0.9896307, 0.71479243, -0.1736381
1566316762511, 13.59481, 5.0918117, -11.024276, 6.11209, 0.8702376, -0.7073356, 0.50173956, -0.07243799
1566316762520, 12.967337, 4.82357, -10.32972, 6.1791506, 0.5281961, -0.43675843, 0.29507825, 0.034088463
1566316762522, 12.485686, 4.7062135, -9.740545, 6.2342362, 0.20917736, -0.1555286, 0.054328486, 0.128897
1566316762530, 11.945756, 4.6104126, -9.093889, 6.224656, 0.33005497, 0.13209279, -0.20240025, 0.2247708
1566316762531, 11.56446, 4.6822634, -8.528665, 6.2510014, 0.69738954, 0.41545314, -0.479369, 0.28975195
1566316762540, 11.24286, 4.6750784, -8.061636, 6.2893214, 1.1054438, 0.7105314, -0.7669904, 0.35899413
1566316762542, 11.080193, 4.8666797, -7.654483, 6.3635674, 1.6056013, 0.9534117, -1.2250541, 0.4101268
1566316762551, 10.664785, 5.3049684, -7.6113725, 5.2594633, 1.9461339, 1.2112057, -1.4711303, 0.39521313
1566316762561, 10.103441, 5.233118, -7.089258, 4.9433208, 2.2580643, 1.4530207, -1.6777915, 0.41545314
1566316762562, 9.654665, 5.108577, -6.67013, 4.756509, 2.527886, 1.6724652, -1.845038, 0.4346279
1566316762563, 9.588902, 5.254673, -6.5072684, 4.6894484, 2.7887206, 1.9025623, -1.9877834, 0.45380265
1566316762572, 9.85363, 5.6833816, -6.598279, 4.6104126, 3.044412, 2.1454427, -2.118811, 0.41971418
1566316762573, 10.273787, 6.1695704, -6.976692, 4.3373804, 3.2573729, 2.3670175, -2.207228, 0.3685815
1566316762582, 10.518299, 6.466553, -7.3311553, 3.8823268, 3.441079, 2.5715485, -2.267948, 0.2908172
1566316762583, 10.658883, 6.7300053, -7.5946074, 3.2620168, 3.5962589, 2.7601001, -2.295645, 0.21198763
1566316762590, 10.626145, 6.8737063, -7.661668, 2.6393116, 3.7251678, 2.9220204, -2.3073628, 0.12144015
1566316762591, 10.717278, 7.077283, -7.831714, 1.8537452, 3.8134954, 3.0402648, -2.3020365, 0.0127831735
1566316762601, 10.98961, 7.33355, -8.119117, 1.0346485, 3.881429, 3.1435955, -2.2743397, -0.10333065
1566316762603, 11.15668, 7.3958206, -8.349038, 0.25866213, 3.9046233, 3.1947281, -2.2327943, -0.23329292
1566316762611, 11.378448, 7.3575, -8.634046, -0.8885523, 3.8868048, 3.2075112, -2.1667478, -0.35260254
1566316762612, 11.49184, 7.117998, -8.820857, -1.8944606, 3.8086405, 3.1510522, -2.0889835, -0.4612595
1566316762622, 11.758871, 6.871311, -9.072334, -2.9578493, 3.680261, 3.0519826, -1.9803267, -0.5550028
1566316762623, 12.061004, 6.588699, -9.144185, -4.29427, 3.4897888, 2.9017804, -1.8279938, -0.64555025
1566316762631, 12.290372, 6.0306597, -9.148975, -5.5660257, 3.2179189, 2.6897926, -1.6245283, -0.69348717
1566316762632, 12.515074, 5.369634, -9.17053, -6.6102543, 2.875919, 2.433064, -1.3582122, -0.71159667
1566316762641, 12.56617, 4.766089, -8.983719, -7.3814507, 2.4633515, 2.1241374, -1.031176, -0.70200926
1566316762643, 12.639351, 4.1984696, -8.935819, -7.8915896, 2.0365243, 1.8013622, -0.68389976, -0.6593987
1566316762652, 12.4223175, 3.8655617, -8.624466, -8.061636, 1.6332651, 1.4562165, -0.4016047, -0.62104917
1566316762653, 12.075089, 3.6739602, -8.169412, -8.097562, 1.2430485, 1.091896, -0.16405073, -0.57098174
1566316762661, 11.4944725, 3.288362, -7.6137676, -7.95865, 0.90647805, 0.75101143, 0.05219796, -0.5049353
1566316762662, 10.787175, 3.027305, -7.213799, -7.4269557, 0.6637486, 0.44741106, 0.22690132, -0.4346279
1566316762672, 10.227954, 2.8859987, -6.933582, -6.943162, 0.56594723, 0.15126756, 0.38562572, -0.38562572
1566316762673, 9.568963, 3.0895753, -6.6030693, -6.198311, 0.60506743, -0.1107875, 0.4889564, -0.3387541
1566316762682, 8.794829, 3.1398706, -6.2605815, -5.319339, 0.7225525, -0.34301516, 0.55287224, -0.314253
1566316762684, 8.223618, 3.4608033, -5.9204884, -4.5385623, 0.8486916, -0.5390238, 0.588026, -0.28975195
1566316762691, 7.9506207, 3.8440065, -5.7648125, -3.899092, 0.9502619, -0.6860303, 0.58269966, -0.30466563
1566316762693, 7.7766848, 4.385281, -5.609136, -3.1278956, 1.0212959, -0.81066626, 0.52411014, -0.3334278
1566316762703, 7.8428907, 5.000801, -5.470225, -2.565066, 1.0867712, -0.91186637, 0.43782368, -0.39734364
1566316762705, 7.689856, 5.0918117, -5.357659, -2.1219873, 1.1441798, -0.98856544, 0.34514567, -0.4612595
1566316762712, 7.6404543, 5.295388, -5.237908, -1.7028589, 1.1968743, -1.0386329, 0.2514024, -0.5390238
1566316762714, 7.3465705, 5.1397123, -5.0654664, -1.3771362, 1.2372293, -1.0769824, 0.15020229, -0.5901565
1566316762723, 7.018052, 4.87147, -4.9361353, -1.0753639, 1.2732536, -1.1025487, 0.06178534, -0.63383234
1566316762724, 6.5537424, 4.543352, -4.6583133, -0.7807764, 1.3060368, -1.1377025, -0.010652645, -0.6412892
1566316762733, 5.988774, 4.2224197, -4.138594, -0.9532178, 1.3127288, -1.160073, 0.0479369, -0.6125271
1566316762735, 5.4595995, 4.023633, -3.278782, -1.6932789, 1.3300836, -1.1792477, 0.24927188, -0.56245965
1566316762743, 5.540153, 3.9733377, -2.9817994, -2.4525, 1.4223183, -1.200553, 0.567786, -0.5091964
1566316762744, 4.9653006, 3.3290772, -3.1183155, -1.961521, 1.5197778, -1.123854, 0.94275904, -0.39734364
1566316762756, 4.205056, 2.8764186, -3.0344899, -0.44786867, 1.656277, -1.1728562, 1.1270498, -0.3121225
1566316762758, 5.941641, 3.9254372, -3.779341, -2.3686745, 1.8266369, -1.2974921, 1.2580773, -0.26525086
1566316762763, 7.9535813, 5.113367, -4.5720925, -4.026028, 2.1019018, -1.417867, 1.5318503, -0.24714136
1566316762765, 9.217519, 5.2929935, -5.1756372, -5.49178, 2.4292846, -1.5169365, 1.8780613, -0.27057716
1566316762775, 9.735444, 5.398374, -6.0665846, -5.369634, 2.5923164, -1.6341157, 1.9856529, -0.3270362
1566316762777, 8.926527, 4.9648757, -6.6198344, -3.3482375, 2.5735936, -1.7065537, 1.8887138, -0.37923414
1566316762785, 7.426799, 3.4560134, -6.468948, -1.1687696, 2.4092572, -1.6745957, 1.6905746, -0.37710363
1566316762787, 6.592439, 2.3471193, -6.0737696, 1.0298585, 2.1248877, -1.5744609, 1.3859091, -0.33981937
1566316762793, 6.200915, 1.336421, -5.336104, 2.8620484, 1.7696711, -1.3997575, 1.055677, -0.24074976
1566316762796, 6.1767054, 0.5029541, -4.387676, 4.3182206, 1.3792722, -1.1313108, 0.7840346, -0.08841695
1566316762803, 6.5999484, 0.18920656, -3.5566041, 5.5564456, 0.99622965, -0.79042625, 0.5997439, 0.08948222
1566316762804, 6.92299, 0.2945874, -3.2332766, 6.1144853, 0.6763389, -0.45486793, 0.41971418, 0.2727077
1566316762813, 7.109852, 1.4609619, -3.8464015, 5.7983427, 0.47083485, -0.17789917, 0.19920446, 0.38775626
1566316762814, 7.338112, 3.2428565, -4.756509, 4.550537, 0.4445281, 0.014913702, -0.007456851, 0.44421527
1566316762823, 7.7828074, 4.4379716, -5.5947657, 3.0943654, 0.48734656, 0.16618125, -0.14487597, 0.4346279
1566316762824, 8.028824, 4.9457154, -6.0282645, 1.9136207, 0.5260681, 0.26631612, -0.2130529, 0.40053943
1566316762832, 8.083808, 5.0846267, -6.198311, 1.0370435, 0.57809615, 0.35153726, -0.23861924, 0.3920173
1566316762834, 7.936947, 5.0750465, -6.085745, 0.45026368, 0.6105824, 0.4133226, -0.21198763, 0.39627838
1566316762844, 7.6070623, 4.89542, -5.815108, 0.2945874, 0.6583214, 0.46339005, -0.18535602, 0.4293016
1566316762845, 7.5056205, 4.766089, -5.7815776, 0.4382886, 0.71898407, 0.51771855, -0.1555286, 0.47404268
1566316762855, 7.550271, 4.806804, -5.8031325, 0.4742139, 0.7893875, 0.5784386, -0.1470065, 0.51665324
1566316762856, 7.599864, 4.8427296, -5.846243, 0.35685793, 0.8569991, 0.62104917, -0.128897, 0.5763081
1566316762864, 7.718727, 4.87626, -5.982759, 0.086220704, 0.9182017, 0.66365975, -0.08735169, 0.628506
1566316762865, 7.7053504, 4.9002104, -5.934859, -0.37122804, 0.98732316, 0.6860303, -0.02876214, 0.7094661
1566316762874, 7.8193707, 5.010381, -5.9061184, -1.0753639, 1.0582001, 0.70200926, 0.07456851, 0.7882957
1566316762875, 7.9781423, 5.1061816, -5.872588, -1.7579445, 1.1142671, 0.66365975, 0.20453078, 0.87138635
1566316762884, 8.328202, 5.278623, -5.9037232, -2.5770411, 1.2040721, 0.6061355, 0.3749731, 0.97045594
1566316762885, 8.718033, 5.455855, -5.9061184, -3.3697927, 1.3008114, 0.49854377, 0.5390238, 1.0737866
1566316762894, 9.402383, 5.752837, -6.183941, -4.1314087, 1.4107854, 0.37390783, 0.7052051, 1.1632688
1566316762895, 9.953703, 6.06419, -6.4426026, -4.5601172, 1.5505658, 0.22583607, 0.87777793, 1.2580773
1566316762905, 10.442639, 6.198311, -6.734795, -5.0271463, 1.7158167, 0.06178534, 1.0396981, 1.3635385
1566316762905, 10.827691, 6.449788, -6.8880763, -5.3097587, 1.8754917, -0.10546118, 1.1824435, 1.4519554
1566316762914, 10.923502, 6.725215, -7.0198026, -4.981641, 2.03706, -0.2609898, 1.2996227, 1.546764
1566316762915, 10.889101, 6.7491655, -7.2760696, -4.481082, 2.1695619, -0.39627838, 1.3709954, 1.6341157
1566316762925, 10.966592, 7.053333, -7.5299416, -3.7170706, 2.2790928, -0.48043427, 1.4168017, 1.7193369
1566316762925, 11.002474, 7.2353544, -7.8772197, -2.579436, 2.3384554, -0.5134575, 1.4295849, 1.7779263
1566316762935, 11.219691, 7.429351, -8.291558, -1.3915064, 2.3423867, -0.5113269, 1.3837786, 1.8194717
1566316762935, 11.556929, 7.7143583, -8.605306, 0.0023950196, 2.250941, -0.44208476, 1.2399678, 1.8258632
1566316762945, 11.9756, 7.829319, -8.919053, 1.6022681, 2.0971825, -0.3270362, 1.0077401, 1.8098843
1566316762946, 12.491347, 7.9826, -9.048384, 3.2308815, 1.967217, -0.13848437, 0.76592517, 1.8066885
1566316762957, 12.920934, 8.140672, -8.966953, 4.502637, 1.9173301, 0.12463594, 0.5613944, 1.8290591
1566316762957, 13.157277, 8.277188, -8.818462, 5.1804276, 1.9646256, 0.39627838, 0.39947417, 1.8823223
1566316762968, 13.388136, 8.57417, -8.784932, 5.343289, 2.067286, 0.67324716, 0.26418558, 1.9366508
1566316762969, 13.431246, 8.902288, -8.907078, 4.670288, 2.1814706, 0.91186637, 0.17576863, 1.973935
1566316762978, 13.556846, 9.381292, -9.10347, 3.5925295, 2.2732596, 1.091896, 0.1555286, 1.9877834
1566316762979, 13.548264, 9.702225, -9.189691, 2.2297633, 2.33682, 1.1909657, 0.165116, 2.0037625
1566316762986, 13.624618, 10.080638, -9.139395, 0.6945557, 2.3364942, 1.2144015, 0.21411815, 1.9845877
1566316762987, 13.915571, 10.475816, -9.134604, -0.6777906, 2.3053656, 1.1792477, 0.27164245, 1.9622171
1566316762996, 14.125543, 10.724898, -9.0004835, -1.8705103, 2.2452586, 1.0940266, 0.34408042, 1.9302592
1566316762997, 14.492735, 11.01709, -9.031619, -2.663262, 2.1512883, 0.9683254, 0.41864893, 1.8748654
1566316763009, 14.906878, 11.452984, -9.005274, -3.1542408, 2.0553463, 0.82557994, 0.50173956, 1.8141453
1566316763010, 15.228447, 11.685301, -9.16095, -3.3817677, 1.969296, 0.69029135, 0.588026, 1.748099
1566316763019, 15.39716, 11.898458, -9.273516, -3.0823903, 1.8731242, 0.55606806, 0.63702816, 1.6714
1566316763020, 15.741712, 12.305611, -9.402847, -2.8213332, 1.7769942, 0.43036684, 0.69774824, 1.5765914
1566316763028, 15.923786, 12.525952, -9.460327, -2.6776319, 1.6868387, 0.3355583, 0.7456851, 1.4753913
1566316763029, 15.934755, 12.549903, -9.520203, -2.4045997, 1.5971259, 0.23222765, 0.78936094, 1.3688648
1566316763039, 15.591013, 12.379856, -9.2328005, -2.1387525, 1.5378748, 0.16405073, 0.8309063, 1.2836437
1566316763040, 15.277505, 12.106824, -9.115445, -1.9327809, 1.4757992, 0.0958738, 0.84688526, 1.2048141
1566316763046, 15.031618, 11.884088, -9.0076685, -1.8920655, 1.4371065, 0.034088463, 0.8745821, 1.139833
1566316763049, 15.0580225, 11.898458, -9.041199, -1.8513502, 1.3731403, -0.027696876, 0.8607337, 1.0695255
1566316763057, 15.086855, 11.884088, -9.091495, -1.9303858, 1.3408735, -0.0958738, 0.87564737, 1.010936
1566316763058, 15.279452, 12.001443, -9.244776, -1.9902613, 1.2810637, -0.14913702, 0.86606, 0.9321064
1566316763070, 15.350983, 11.963123, -9.398057, -2.0525317, 1.2652987, -0.21198763, 0.8767126, 0.8873653
1566316763071, 15.027972, 11.553575, -9.395662, -2.0190015, 1.2154014, -0.24927188, 0.85540736, 0.8266452
1566316763079, 15.048276, 11.61345, -9.357342, -2.0046315, 1.1946863, -0.30786142, 0.8511463, 0.7797736
1566316763080, 14.9714575, 11.663746, -9.192085, -1.8992506, 1.1599027, -0.33981937, 0.8266452, 0.7392935
1566316763087, 14.939175, 11.651771, -9.15616, -1.8920655, 1.1294401, -0.37710363, 0.809601, 0.69135666
1566316763087, 14.9302435, 11.819422, -8.983719, -1.583108, 1.0701509, -0.4165184, 0.7637946, 0.62317973
1566316763100, 14.891666, 11.836187, -8.931028, -1.3795313, 0.9784847, -0.4314321, 0.67537767, 0.5613944
1566316763101, 14.961549, 11.970308, -8.897498, -1.1807446, 0.88263446, -0.4495416, 0.58483016, 0.48469532
1566316763110, 15.083294, 12.20502, -8.804092, -1.0154883, 0.76980084, -0.46658584, 0.4676511, 0.39521313
1566316763111, 15.174631, 12.296031, -8.830438, -1.0490186, 0.6586557, -0.47617322, 0.34088463, 0.30146983
1566316763120, 15.448348, 12.521163, -9.010064, -0.8310718, 0.5799433, -0.49960902, 0.23222765, 0.18109496
1566316763121, 15.814595, 12.842095, -9.1849, -0.9053174, 0.53459513, -0.51771855, 0.10972224, 0.07563378
1566316763130, 16.034819, 12.997771, -9.340576, -0.9627979, 0.54337776, -0.5411543, -0.0031957934, -0.049002163
1566316763131, 15.993029, 12.887601, -9.433982, -0.8286768, 0.5760205, -0.5411543, -0.10972224, -0.16405073
1566316763139, 15.707171, 12.4541025, -9.544153, -0.7209009, 0.6403763, -0.5454154, -0.21092236, -0.2609898
1566316763140, 15.359641, 12.082874, -9.479487, -0.24908204, 0.7072674, -0.5230448, -0.3334278, -0.33981937
1566316763151, 15.05779, 11.8002615, -9.352551, 0.14370118, 0.7815274, -0.49002165, -0.45380265, -0.40586576
1566316763152, 14.953276, 11.670931, -9.333391, 0.52690434, 0.8656413, -0.43995422, -0.59228706, -0.4527374
1566316763161, 14.799921, 11.493699, -9.261541, 1.0753639, 0.99177146, -0.35899413, -0.7637946, -0.5209143
1566316763162, 14.724119, 11.383529, -9.201666, 1.5950831, 1.115084, -0.26312032, -0.9235843, -0.56672066
1566316763170, 14.630071, 11.304493, -9.105865, 1.8250049, 1.2768003, -0.1470065, -1.1100056, -0.6135923
1566316763171, 14.619928, 11.285333, -8.986114, 2.3734643, 1.4600575, -0.029827405, -1.2996227, -0.664725
1566316763181, 14.491692, 11.115286, -8.947793, 2.5291407, 1.6514602, 0.099069595, -1.4839134, -0.71798825
1566316763182, 14.211744, 10.928474, -8.722662, 2.5411158, 1.8427233, 0.22264028, -1.6511599, -0.78723043
1566316763191, 14.023394, 10.844649, -8.50711, 2.5842261, 2.021559, 0.34301516, -1.8077538, -0.83729786
1566316763192, 13.734616, 10.734478, -8.234077, 2.3686745, 2.1999247, 0.45593318, -1.9494339, -0.91186637
1566316763201, 13.417205, 10.471025, -8.040081, 2.3950195, 2.3492568, 0.5539375, -2.0644825, -0.97471696
1566316763202, 13.034954, 10.317744, -7.690408, 2.076482, 2.489853, 0.63702816, -2.1667478, -1.0482203
1566316763211, 12.647624, 10.135723, -7.32397, 1.8944606, 2.6164858, 0.716923, -2.251969, -1.1227888
1566316763212, 12.2020645, 9.812395, -7.0509377, 1.7004639, 2.7138507, 0.7755125, -2.3031018, -1.2080098
1566316763221, 11.87776, 9.64714, -6.74198, 1.5998731, 2.8089426, 0.8309063, -2.3574302, -1.2815131
1566316763222, 11.4352255, 9.292676, -6.4905033, 1.5112574, 2.8897989, 0.88203895, -2.3957798, -1.3539511
1566316763231, 11.121207, 9.11784, -6.1743608, 1.5567628, 2.9680097, 0.94275904, -2.4266725, -1.4253238
1566316763232, 10.773065, 8.856783, -5.934859, 1.5471827, 3.0368645, 0.9938917, -2.449043, -1.4956313
1566316763241, 10.449599, 8.6077, -5.702542, 1.6070582, 3.0973818, 1.0492855, -2.461826, -1.5595472
1566316763243, 10.035061, 8.279583, -5.43909, 1.6022681, 3.1525009, 1.107875, -2.4724789, -1.6117451
1566316763248, 9.826724, 8.090376, -5.343289, 1.5998731, 3.2032325, 1.164334, -2.4714136, -1.6724652
1566316763249, 9.603843, 7.8436894, -5.3289185, 1.5208374, 3.2487295, 1.2218584, -2.4671526, -1.7246631
1566316763258, 9.339848, 7.680828, -5.134922, 1.3675562, 3.2715387, 1.2676647, -2.433064, -1.7821875
1566316763259, 9.022706, 7.3886356, -5.0271463, 1.2430152, 3.2773163, 1.3006879, -2.3947146, -1.820537
1566316763269, 8.812405, 7.2329593, -4.9241605, 1.0466236, 3.2895179, 1.32945, -2.3499734, -1.8791265
1566316763270, 8.57152, 6.998247, -4.8571, 0.9508228, 3.2965477, 1.3635385, -2.3062975, -1.9206718
1566316763279, 8.450679, 6.935977, -4.775669, 0.7065308, 3.303627, 1.3773869, -2.271144, -1.9643476
1566316763280, 8.191098, 6.758745, -4.600833, 0.49576905, 3.2937672, 1.3923006, -2.2221417, -1.9931098
1566316763289, 8.108892, 6.6437845, -4.639153, 0.30416748, 3.2716873, 1.3837786, -2.1582258, -2.0325246
1566316763290, 8.052283, 6.6365995, -4.5601172, -0.011975098, 3.241245, 1.3837786, -2.0889835, -2.0559604
1566316763303, 8.057646, 6.5623536, -4.6750784, -0.06945557, 3.2033827, 1.361408, -2.0154803, -2.0847225
1566316763304, 7.953198, 6.471343, -4.617598, -0.22992188, 3.168579, 1.3411679, -1.933455, -2.122007
1566316763313, 7.954676, 6.471343, -4.598438, -0.5029541, 3.1360795, 1.3113406, -1.8482338, -2.167813
1566316763314, 7.89348, 6.342012, -4.643943, -0.7209009, 3.0735877, 1.2655342, -1.7566211, -2.1816616
1566316763323, 7.7874303, 6.231841, -4.5864625, -0.87897223, 3.0195458, 1.2144015, -1.6618125, -2.2093585
1566316763324, 7.7092576, 6.07856, -4.600833, -1.1472144, 2.9596882, 1.1547467, -1.5744609, -2.2242723
1566316763330, 7.84827, 6.12646, -4.727769, -1.3076807, 2.902061, 1.0769824, -1.4881744, -2.2466428
1566316763330, 7.812037, 6.05461, -4.679868, -1.5711329, 2.846709, 1.010936, -1.4008228, -2.2626216
1566316763340, 7.928368, 6.0761647, -4.768484, -1.7890797, 2.7787004, 0.91186637, -1.3177321, -2.2700787
1566316763341, 7.9659805, 6.0258694, -4.86189, -1.8729054, 2.7316914, 0.8277105, -1.2335763, -2.292449
1566316763350, 8.1168375, 6.06419, -4.981641, -2.071692, 2.6693323, 0.7190535, -1.1526161, -2.2977755
1566316763351, 8.323126, 6.219866, -5.046306, -2.2632935, 2.6212234, 0.61572284, -1.0737866, -2.3105586
1566316763362, 8.286466, 6.0737696, -5.1061816, -2.3878345, 2.5717506, 0.5028048, -1.0013486, -2.3148196
1566316763363, 8.360325, 6.1073003, -5.1804276, -2.3998096, 2.53091, 0.386691, -0.91825795, -2.3265376
1566316763371, 8.530496, 6.08814, -5.3863993, -2.5866213, 2.4920213, 0.26844665, -0.84581995, -2.328668
1566316763371, 8.668191, 6.1480155, -5.4534597, -2.7566676, 2.4653244, 0.13741912, -0.7850999, -2.3329291
1566316763381, 8.724007, 6.1863356, -5.5875807, -2.572251, 2.4449437, 0.0127831735, -0.721184, -2.336125
1566316763382, 8.919937, 6.1815457, -5.8007374, -2.7758276, 2.4274938, -0.113983296, -0.6498113, -2.336125
1566316763391, 9.199083, 6.3060865, -6.06419, -2.8428884, 2.417606, -0.2428803, -0.5816344, -2.3339944
1566316763392, 9.479125, 6.4090724, -6.346802, -2.914739, 2.400187, -0.35899413, -0.50387007, -2.3190808
1566316763401, 9.476656, 6.351592, -6.471343, -2.7542725, 2.4132981, -0.4857606, -0.41864893, -2.3265376
1566316763402, 9.6722765, 6.358777, -6.71803, -2.8261232, 2.410451, -0.6061355, -0.33768883, -2.308428
1566316763413, 9.616793, 6.246211, -6.8042507, -2.6776319, 2.4154375, -0.721184, -0.26205507, -2.2903185
1566316763415, 9.669111, 6.1552005, -6.962322, -2.6704469, 2.4351034, -0.8309063, -0.19387813, -2.2807312
1566316763423, 9.638591, 6.0665846, -7.0413575, -2.5530908, 2.4233036, -0.9257148, -0.1257012, -2.23599
1566316763425, 9.709646, 6.047425, -7.206614, -2.4022048, 2.4418213, -1.0333065, -0.06391586, -2.211489
1566316763434, 9.817259, 6.0617948, -7.3742657, -2.2920337, 2.4438713, -1.1302456, -0.015978966, -2.1667478
1566316763435, 9.820302, 5.944439, -7.5012016, -2.198628, 2.4460173, -1.2250541, 0.043675844, -2.1166804
1566316763442, 9.955086, 5.879773, -7.7359133, -2.1650977, 2.446473, -1.3134711, 0.082025364, -2.062352
1566316763444, 9.985599, 5.846243, -7.790999, -2.198628, 2.4671803, -1.4210628, 0.11824436, -2.0133498
1566316763454, 10.087249, 5.7983427, -7.965835, -2.1627028, 2.4857278, -1.514806, 0.13102753, -1.9664782
1566316763455, 10.238693, 5.841453, -8.1071415, -2.2321582, 2.509654, -1.6287893, 0.1470065, -1.9036276
1566316763464, 10.401301, 5.855823, -8.305928, -2.215393, 2.5298367, -1.7331853, 0.165116, -1.8354506
1566316763466, 10.809142, 5.9875493, -8.681946, -2.3686745, 2.5751357, -1.8620822, 0.18216023, -1.7694043
1566316763470, 11.050838, 6.06419, -8.916658, -2.4165747, 2.6023538, -1.9707392, 0.19387813, -1.6884441
1566316763472, 11.481793, 6.368357, -9.220825, -2.5004005, 2.646689, -2.0953753, 0.20985709, -1.603223
1566316763481, 11.860434, 6.5623536, -9.558523, -2.4980054, 2.7137413, -2.2264028, 0.23329292, -1.5339808
1566316763482, 12.135505, 6.7371902, -9.7740755, -2.5195606, 2.786514, -2.3595607, 0.26525086, -1.4583471
1566316763494, 12.2751045, 6.69408, -9.970467, -2.5411158, 2.850496, -2.4820662, 0.30146983, -1.3688648
1566316763495, 12.43248, 6.813831, -10.078242, -2.562671, 2.9330351, -2.6141589, 0.34408042, -1.284709
1566316763505, 12.442427, 6.6821046, -10.181229, -2.550696, 3.0146306, -2.743056, 0.39095205, -1.1877699
1566316763506, 12.541207, 6.7300053, -10.274634, -2.5339308, 3.1055233, -2.8783445, 0.43888897, -1.0801781
1566316763514, 12.564815, 6.6677346, -10.375225, -2.4022048, 3.1905699, -2.9987195, 0.50387007, -0.96619487
1566316763514, 12.495879, 6.5384035, -10.399176, -2.2920337, 3.2814896, -3.113768, 0.5613944, -0.87032104
1566316763522, 12.384203, 6.502478, -10.356065, -1.9591261, 3.3500435, -3.2053807, 0.59867865, -0.7680557
1566316763523, 12.218375, 6.488108, -10.241104, -1.5208374, 3.422981, -3.2959282, 0.6327671, -0.67324716
1566316763532, 12.201139, 6.5719337, -10.209969, -1.1975098, 3.4677253, -3.3577135, 0.6508766, -0.572047
1566316763533, 12.183071, 6.5479836, -10.241104, -0.81909674, 3.503256, -3.4045851, 0.67963874, -0.46871635
1566316763542, 12.207891, 6.5479836, -10.296189, -0.38080812, 3.534092, -3.444, 0.70200926, -0.3685815
1566316763543, 12.366461, 6.7731156, -10.346485, -0.06706055, 3.5497406, -3.4589138, 0.74461985, -0.28655612
1566316763553, 12.37875, 6.7970657, -10.336905, 0.4263135, 3.540878, -3.4461305, 0.78723043, -0.20559604
1566316763554, 12.477566, 6.7898808, -10.44468, 0.7041358, 3.5162425, -3.419499, 0.809601, -0.12463594
1566316763563, 12.411252, 6.7779055, -10.327325, 1.2022998, 3.4848104, -3.3779535, 0.8543421, -0.058589544
1566316763564, 12.106708, 6.5623536, -10.063872, 1.4920973, 3.418888, -3.303385, 0.8809737, 0.018109497
1566316763573, 12.03134, 6.449788, -9.951306, 2.0309765, 3.3497198, -3.2245555, 0.9012137, 0.10333065
1566316763574, 11.738734, 6.217471, -9.64714, 2.4644752, 3.2635784, -3.1244206, 0.92464954, 0.18429075
1566316763583, 11.754286, 6.10251, -9.599238, 2.9626393, 3.1410246, -2.988067, 0.92997587, 0.2695119
1566316763585, 11.739591, 5.997129, -9.501043, 3.403323, 3.0207043, -2.8453214, 0.9470201, 0.36325517
1566316763593, 11.79327, 5.879773, -9.474698, 3.8392165, 2.8597782, -2.6620958, 0.93849796, 0.45912898
1566316763594, 11.823828, 5.7001467, -9.388477, 4.378096, 2.690874, -2.4639566, 0.9289106, 0.5539375
1566316763603, 11.774673, 5.585186, -9.211246, 4.754114, 2.4971745, -2.2370553, 0.89801794, 0.65194184
1566316763604, 11.58524, 5.3289185, -8.859178, 5.2283278, 2.2903705, -1.9920446, 0.8522116, 0.74248934
1566316763613, 11.395392, 5.022356, -8.514295, 5.6690116, 2.0845873, -1.7374463, 0.7819041, 0.84581995
1566316763614, 11.191668, 4.790039, -8.123906, 6.0258694, 1.8886929, -1.4689997, 0.6956177, 0.9619338
1566316763624, 10.928201, 4.5696974, -7.6209526, 6.361172, 1.6940967, -1.176052, 0.567786, 1.0791129
1566316763625, 10.753231, 4.402046, -7.2497244, 6.6102543, 1.5444355, -0.87990844, 0.42717105, 1.1952267
1566316763634, 10.711278, 4.4451566, -6.976692, 6.8042507, 1.4610062, -0.58269966, 0.26418558, 1.3134711
1566316763635, 10.714741, 4.526587, -6.7731156, 6.959927, 1.4406204, -0.26631612, 0.0958738, 1.4125407
1566316763644, 10.779468, 4.799619, -6.6773148, 6.969507, 1.5127975, 0.05219796, -0.06391586, 1.510545
1566316763645, 10.961525, 5.118157, -6.7467704, 6.959927, 1.6588128, 0.37816888, -0.22796659, 1.598962
1566316763653, 11.117677, 5.5564456, -6.7731156, 6.844966, 1.8502046, 0.6988135, -0.3898868, 1.6682042
1566316763654, 11.336176, 5.982759, -6.9719024, 6.6413894, 2.0683138, 1.0077401, -0.515588, 1.7310548
1566316763663, 11.312287, 6.320457, -7.1443434, 6.080955, 2.290194, 1.3060142, -0.63915867, 1.7694043
1566316763664, 11.356682, 6.6413894, -7.216194, 5.726492, 2.5124016, 1.5893745, -0.73822826, 1.8002969
1566316763673, 11.368457, 6.9216065, -7.3838453, 5.1780324, 2.7239373, 1.8429075, -0.82344943, 1.8290591
1566316763676, 11.392444, 7.3000197, -7.5395217, 4.4331813, 2.9111803, 2.086853, -0.87564737, 1.8311896
1566316763684, 11.380773, 7.551497, -7.654483, 3.7290456, 3.0712457, 2.2860575, -0.902279, 1.8418423
1566316763685, 11.62072, 7.805369, -8.032896, 3.0967603, 3.2249842, 2.485262, -0.9310411, 1.8322549
1566316763694, 11.957142, 8.073611, -8.408914, 2.6608667, 3.3729532, 2.6652918, -0.93423694, 1.8439728
1566316763694, 12.149702, 8.126302, -8.758587, 2.2058132, 3.5031085, 2.8367991, -0.9395633, 1.8279938
1566316763704, 12.244372, 8.2125225, -8.914263, 1.7363893, 3.625918, 2.9774141, -0.9598033, 1.8333201
1566316763705, 12.241158, 8.186177, -9.034014, 1.104104, 3.7307532, 3.1009848, -0.96619487, 1.8354506
1566316763714, 12.16125, 8.083191, -9.077125, 0.4047583, 3.797195, 3.1766186, -0.9651296, 1.8429075
1566316763715, 12.030278, 7.917935, -9.05557, -0.17483643, 3.8526216, 3.2373388, -0.9502159, 1.8599517
1566316763724, 11.802859, 7.7407036, -8.851993, -1.0154883, 3.8509424, 3.2373388, -0.90014845, 1.881257
1566316763725, 11.599613, 7.4892263, -8.6627865, -1.8489552, 3.8432264, 3.235208, -0.8319715, 1.9004318
1566316763734, 11.406386, 7.302415, -8.394544, -2.5123756, 3.7939842, 3.186206, -0.72437984, 1.9281287
1566316763735, 11.252862, 7.1706886, -8.073611, -3.166216, 3.7098224, 3.0999196, -0.59761333, 1.9483687
1566316763744, 11.26876, 7.182664, -7.817344, -3.779341, 3.6052992, 2.9859362, -0.47297743, 1.9643476
1566316763745, 11.131707, 7.096443, -7.32876, -4.4547367, 3.4733353, 2.8272119, -0.3334278, 1.9899141
1566316763755, 11.067124, 7.0126176, -6.928792, -5.029541, 3.3362389, 2.6493127, -0.16724652, 2.0208068
1566316763756, 11.179067, 6.8737063, -6.67013, -5.7648125, 3.190723, 2.4351945, 0.040480047, 2.0612867
1566316763765, 10.343699, 6.1767554, -5.8127127, -5.9204884, 3.0659204, 2.2136195, 0.23542345, 2.1081583
1566316763766, 10.531867, 6.4162574, -5.6187162, -6.1791506, 2.9209428, 1.9600866, 0.43249738, 2.122007
1566316763775, 10.749796, 6.5240335, -5.1732426, -6.799461, 2.7935345, 1.6852484, 0.61572284, 2.1411815
1566316763776, 10.766007, 6.5096636, -4.8523097, -7.070098, 2.688089, 1.3954965, 0.8021441, 2.1528995
1566316763786, 10.603868, 6.557564, -4.4259963, -7.060518, 2.6205099, 1.1057445, 0.98856544, 2.1603563
1566316763794, 10.487514, 6.638994, -4.119434, -6.9958525, 2.575381, 0.8245147, 1.1696603, 2.1411815
1566316763796, 10.319728, 6.809041, -3.788921, -6.7659307, 2.5720994, 0.5784386, 1.3486248, 2.1124194
1566316763797, 10.141265, 7.201824, -3.4631984, -6.2438164, 2.520849, 0.330232, 1.506284, 1.9941751
1566316763806, 10.41458, 8.188572, -2.8979738, -5.745652, 2.4954307, 0.12357068, 1.6373115, 1.8791265
1566316763814, 10.068304, 8.047266, -3.0416749, -5.230723, 2.533778, -0.053263225, 1.7981664, 1.784318
1566316763815, 10.008284, 8.147857, -3.06802, -4.9361353, 2.548813, -0.21411815, 1.9206718, 1.6618125
1566316763817, 10.053635, 8.5430355, -3.2380664, -4.1960745, 2.5305138, -0.35473305, 1.9835224, 1.530785
1566316763826, 9.899213, 8.681946, -3.1973512, -3.5206788, 2.48495, -0.47404268, 2.005893, 1.3880396
1566316763827, 9.380358, 8.353828, -3.1159205, -2.914739, 2.4350748, -0.5795039, 1.9973708, 1.2665994
1566316763836, 8.894447, 8.020921, -2.823728, -2.6081765, 2.410713, -0.6668556, 1.9984361, 1.171791
1566316763837, 8.474865, 7.702383, -2.5890162, -2.4069948, 2.3853889, -0.7456851, 1.9824572, 1.0972224
1566316763847, 8.186924, 7.5059915, -2.3471193, -2.2752686, 2.351391, -0.8277105, 1.9494339, 1.0215886
1566316763854, 8.283876, 7.6520877, -2.3590944, -2.1219873, 2.296784, -0.89375687, 1.8993665, 0.9321064
1566316763855, 8.624916, 7.94428, -2.565066, -2.1674929, 2.2513099, -0.9683254, 1.8642128, 0.809601
1566316763856, 9.020087, 8.272398, -2.7901978, -2.2680836, 2.2077484, -1.0354371, 1.8279938, 0.6785734
1566316763865, 9.224703, 8.384964, -3.187771, -2.1507277, 2.16696, -1.0940266, 1.788579, 0.5475459
1566316763866, 9.268452, 8.341853, -3.5015187, -2.0142114, 2.1367023, -1.135572, 1.7608821, 0.41864893
1566316763875, 9.347169, 8.368198, -3.7122805, -1.8872755, 2.1179838, -1.1749867, 1.736381, 0.30040458
1566316763876, 9.435006, 8.377779, -4.0930886, -1.4418018, 2.092956, -1.2016183, 1.7033578, 0.18748654
1566316763885, 9.172615, 8.028106, -4.133804, -1.6118482, 2.0864584, -1.2335763, 1.6777915, 0.128897
1566316763887, 8.711696, 7.6041875, -4.0787187, -1.1975098, 2.0705655, -1.2495552, 1.6490294, 0.080960095
1566316763895, 8.470415, 7.2904396, -4.1793094, -1.0633887, 2.0500388, -1.2452941, 1.6266588, 0.07669904
1566316763897, 8.458182, 7.1563187, -4.4331813, -0.8214917, 2.0327191, -1.2463595, 1.6042882, 0.06924219
1566316763906, 8.557266, 7.117998, -4.7253737, -0.48139894, 2.0021286, -1.2431636, 1.5680692, 0.06498113
1566316763907, 8.555719, 6.9934573, -4.90979, -0.43110353, 1.9667174, -1.2399678, 1.5254587, 0.058589544
1566316763916, 8.597795, 6.9144216, -5.094207, -0.4023633, 1.924557, -1.2367721, 1.4732608, 0.06178534
1566316763917, 8.51218, 6.6916847, -5.249883, -0.3424878, 1.8899214, -1.2410331, 1.4221281, 0.0958738
1566316763927, 8.427709, 6.5407987, -5.3097587, -0.22513184, 1.8518403, -1.2314457, 1.3763217, 0.13635385
1566316763928, 8.301977, 6.2941117, -5.4127445, -0.09580079, 1.8059667, -1.2250541, 1.3134711, 0.18855181
1566316763937, 8.30687, 6.198311, -5.5301003, -0.05508545, 1.7723807, -1.2261194, 1.2538162, 0.25672874
1566316763938, 8.334971, 6.1647806, -5.609136, -0.06945557, 1.7438464, -1.2090752, 1.2133362, 0.3270362
1566316763946, 8.443942, 6.07856, -5.860613, -0.06706055, 1.7206689, -1.196292, 1.1675298, 0.4079963
1566316763947, 8.670066, 6.212681, -6.047425, 0.035925295, 1.6788466, -1.160073, 1.107875, 0.49534798
1566316763957, 8.8055, 6.2438164, -6.198311, 0.364043, 1.6421369, -1.1302456, 1.0354371, 0.58909124
1566316763958, 9.051586, 6.3923073, -6.365962, 0.7376661, 1.5917368, -1.0812434, 0.95234644, 0.6764429
1566316763967, 9.229753, 6.480923, -6.488108, 1.0442286, 1.5343751, -1.0088054, 0.8564726, 0.7765778
1566316763968, 9.554994, 6.71324, -6.6533647, 1.4010864, 1.4708638, -0.9267801, 0.74461985, 0.86606
1566316763977, 9.940067, 7.0078273, -6.8928666, 1.477727, 1.4243824, -0.8266452, 0.63702816, 0.96939063
1566316763978, 10.374158, 7.3838453, -7.070098, 1.7651294, 1.379682, -0.71798825, 0.5251754, 1.0546118
1566316763987, 10.886161, 7.8484793, -7.29523, 1.9208057, 1.358015, -0.6018744, 0.4495416, 1.1313108
1566316763988, 11.292634, 8.296348, -7.436536, 1.84177, 1.3507545, -0.4889564, 0.37284255, 1.2026836
1566316763997, 11.737419, 8.734636, -7.5874224, 1.9758912, 1.3424522, -0.3568636, 0.31638354, 1.2548815
1566316763998, 12.280502, 9.342972, -7.7478886, 1.8681153, 1.3488882, -0.2247708, 0.2876214, 1.2985574
1566316764007, 12.661289, 9.81, -7.788604, 1.8465601, 1.3490946, -0.10226539, 0.25992453, 1.3198626
1566316764008, 13.035098, 10.281819, -7.829319, 1.7028589, 1.3504167, 0.020240024, 0.23009712, 1.3305153
1566316764017, 13.35892, 10.6746025, -7.8436894, 1.7292042, 1.343834, 0.14168017, 0.20240025, 1.320928
1566316764018, 13.421482, 10.856624, -7.7287283, 1.5926881, 1.3459358, 0.25672874, 0.19281286, 1.3070794
1566316764028, 13.635586, 11.134446, -7.7383084, 1.4394068, 1.344113, 0.36218992, 0.18216023, 1.2815131
1566316764029, 13.817368, 11.424244, -7.680828, 1.1879297, 1.3541455, 0.47830373, 0.15765914, 1.257012
1566316764037, 13.863126, 11.55597, -7.599397, 0.94603276, 1.350094, 0.5592638, 0.14913702, 1.2197278
1566316764039, 13.910469, 11.716436, -7.470066, 0.6514453, 1.3267026, 0.62317973, 0.13635385, 1.1632688
1566316764048, 13.91534, 11.778707, -7.3958206, 0.44786867, 1.3219794, 0.68816084, 0.1257012, 1.1217234
1566316764049, 13.849078, 11.812237, -7.2257743, 0.23710695, 1.3025118, 0.74248934, 0.10226539, 1.0652645
1566316764057, 13.972362, 11.970308, -7.206614, -0.05748047, 1.2811062, 0.77870834, 0.07989483, 1.0141318
1566316764058, 14.0364895, 12.1379595, -7.0437527, -0.2802173, 1.2360543, 0.8000136, 0.03195793, 0.9416938
1566316764068, 14.294615, 12.334352, -7.194639, -0.6610254, 1.1880717, 0.80747044, -0.013848438, 0.87138635
1566316764069, 14.7196, 12.686419, -7.4054008, -0.9388477, 1.1263937, 0.79255676, -0.0479369, 0.79894835
1566316764078, 15.253263, 13.019327, -7.8436894, -1.2789404, 1.0520316, 0.7765778, -0.07989483, 0.7052051
1566316764079, 15.791228, 13.395345, -8.178992, -1.7411792, 0.97082126, 0.7414241, -0.084155895, 0.62104917
1566316764088, 16.219044, 13.706697, -8.4376545, -1.9974464, 0.8534962, 0.6764429, -0.0628506, 0.51665324
1566316764089, 16.477978, 13.852794, -8.624466, -2.2896388, 0.73401976, 0.6061355, -0.023435818, 0.4133226
1566316764100, 16.595186, 13.898299, -8.679551, -2.6273365, 0.6095873, 0.5230448, 0.024501082, 0.3121225
1566316764101, 16.52184, 13.816868, -8.605306, -2.8309133, 0.49444452, 0.44101948, 0.07989483, 0.20879184
1566316764108, 16.331882, 13.5869465, -8.571775, -2.9410841, 0.3834079, 0.34514567, 0.12676647, 0.10865697
1566316764109, 16.159266, 13.44085, -8.4448395, -3.0249097, 0.29918575, 0.2428803, 0.17044231, 0.03834952
1566316764119, 15.864178, 13.177398, -8.339458, -2.912344, 0.25050935, 0.14487597, 0.19813919, -0.05006743
1566316764120, 15.605138, 12.969031, -8.2125225, -2.806963, 0.24468176, 0.04580637, 0.20985709, -0.11717909
1566316764128, 15.381463, 12.79659, -8.121511, -2.6225464, 0.29071182, -0.037284255, 0.21624869, -0.19068234
1566316764129, 15.155452, 12.518767, -8.226892, -2.299219, 0.3518196, -0.111852765, 0.20772657, -0.2609898
1566316764139, 14.99334, 12.384646, -8.176597, -2.1363575, 0.42553282, -0.17044231, 0.20559604, -0.33129725
1566316764140, 14.492066, 12.006233, -7.932305, -1.7172291, 0.48636878, -0.20879184, 0.1917476, -0.39521313
1566316764149, 14.002407, 11.66135, -7.647298, -1.2645704, 0.5180242, -0.21198763, 0.16724652, -0.44208476
1566316764150, 13.665188, 11.443404, -7.417376, -0.8765772, 0.5295061, -0.21837921, 0.113983296, -0.46871635
1566316764159, 13.165885, 11.06978, -7.1132083, -0.45026368, 0.5438496, -0.19813919, 0.039414786, -0.5049353
1566316764160, 13.029345, 10.99314, -6.9934573, 0.07903565, 0.57720727, -0.16724652, -0.06498113, -0.5486112
1566316764169, 12.978, 10.890154, -7.0509377, 0.3424878, 0.63249266, -0.12037488, -0.18642128, -0.59228706
1566316764170, 13.177402, 11.057806, -7.1467385, 0.5412744, 0.72799116, -0.09054748, -0.33449304, -0.6402239
1566316764179, 13.347993, 11.160791, -7.2808595, 0.7711963, 0.8523567, -0.05006743, -0.49002165, -0.6956177
1566316764180, 13.76895, 11.429033, -7.654483, 0.60833496, 0.988628, -0.01917476, -0.63383234, -0.7584683
1566316764189, 13.955847, 11.515254, -7.8700347, 0.4766089, 1.1360525, 0.013848438, -0.77231675, -0.8330368
1566316764190, 14.2893, 11.678116, -8.226892, 0.3520679, 1.2892767, 0.034088463, -0.9139969, -0.9086706
1566316764199, 14.465609, 11.761941, -8.418494, 0.19878663, 1.4151901, 0.05006743, -1.0247844, -0.97471696
1566316764202, 14.657373, 11.802657, -8.689131, 0.18681154, 1.5343969, 0.06711166, -1.1185277, -1.0482203
1566316764209, 14.76141, 11.730806, -8.957374, 0.22992188, 1.6207154, 0.080960095, -1.1920309, -1.0950918
1566316764211, 14.798158, 11.611055, -9.16574, 0.39757326, 1.7010273, 0.12144015, -1.2644689, -1.1313108
1566316764220, 14.669322, 11.361973, -9.251961, 0.7041358, 1.7844183, 0.16085494, -1.3379722, -1.1696603
1566316764221, 14.521229, 11.151212, -9.251961, 0.9580079, 1.8656758, 0.20453078, -1.417867, -1.1952267
1566316764230, 14.41865, 11.060201, -9.182506, 1.1184741, 1.9553642, 0.25992453, -1.5094798, -1.2154667
1566316764231, 14.184957, 10.676997, -9.256751, 1.2358302, 2.0298867, 0.3206446, -1.6042882, -1.2016183
1566316764239, 13.807618, 10.391991, -8.983719, 1.3962965, 2.1191077, 0.38029942, -1.7065537, -1.1973573
1566316764241, 13.467122, 10.111773, -8.765772, 1.5088624, 2.1986048, 0.43249738, -1.8002969, -1.1856394
1566316764250, 13.171914, 9.798025, -8.677156, 1.4849122, 2.2674062, 0.48363006, -1.881257, -1.1696603
1566316764251, 12.910799, 9.702225, -8.392149, 1.4585669, 2.3455398, 0.531567, -1.9718045, -1.1536814
1566316764262, 12.65511, 9.503438, -8.222102, 1.4944923, 2.4234908, 0.5603291, -2.0634172, -1.1408982
1566316764263, 12.400431, 9.493857, -7.8604546, 1.3603711, 2.4841442, 0.59122175, -2.130529, -1.1323761
1566316764270, 12.018591, 9.263936, -7.5323367, 1.3747413, 2.52607, 0.61891866, -2.171009, -1.1334413
1566316764271, 11.812065, 9.1849, -7.321575, 1.2478052, 2.5644722, 0.624245, -2.2178805, -1.1259845
1566316764280, 11.585821, 9.16095, -6.9934573, 1.1831397, 2.5999875, 0.63915867, -2.247708, -1.139833
1566316764281, 11.285711, 9.053174, -6.6509695, 1.0825489, 2.6124911, 0.6423545, -2.2498386, -1.1622036
1566316764291, 11.1460085, 9.077125, -6.368357, 1.1328443, 2.6183066, 0.64555025, -2.2434468, -1.1856394
1566316764292, 10.811207, 8.863968, -6.0833497, 1.1424243, 2.6089108, 0.6412892, -2.2146847, -1.220793
1566316764303, 10.596837, 8.818462, -5.7767873, 1.0753639, 2.60183, 0.6402239, -2.1880531, -1.2538162
1566316764304, 10.293926, 8.713081, -5.381609, 1.0418335, 2.581614, 0.64341974, -2.139051, -1.2942963
1566316764311, 10.03725, 8.598121, -5.0510964, 1.1424243, 2.5732474, 0.6402239, -2.091114, -1.3560816
1566316764313, 9.915402, 8.52627, -4.9217653, 1.1807446, 2.5531566, 0.6466155, -2.0357203, -1.3986923
1566316764323, 9.852996, 8.52627, -4.790039, 1.1999048, 2.5228276, 0.65513766, -1.9547603, -1.454086
1566316764324, 9.7277355, 8.461604, -4.641548, 1.219065, 2.5100791, 0.6743124, -1.8844528, -1.514806
1566316764331, 9.633028, 8.337064, -4.639153, 1.3292359, 2.4800904, 0.69668293, -1.7907095, -1.5680692
1566316764332, 9.432411, 8.207732, -4.4451566, 1.3579761, 2.4698734, 0.716923, -1.707619, -1.6341157
1566316764341, 9.276047, 8.018526, -4.4643164, 1.3483961, 2.4636188, 0.7520767, -1.6287893, -1.6884441
1566316764343, 9.09233, 7.917935, -4.25595, 1.3651612, 2.451183, 0.7595336, -1.5520903, -1.7385116
1566316764351, 8.846829, 7.702383, -4.138594, 1.346001, 2.4573019, 0.7850999, -1.4871092, -1.7917749
1566316764352, 8.768752, 7.6041875, -4.160149, 1.3268409, 2.4617772, 0.8223842, -1.4168017, -1.8375812
1566316764361, 8.682471, 7.534732, -4.152964, 1.1687696, 2.46822, 0.8426242, -1.3560816, -1.8823223
1566316764363, 8.731947, 7.585027, -4.1864944, 1.089734, 2.482399, 0.8692558, -1.2996227, -1.9281287
1566316764372, 8.790252, 7.6281376, -4.272715, 0.90771246, 2.4919398, 0.8863, -1.2495552, -1.965413
1566316764374, 8.781153, 7.5970025, -4.361331, 0.61073, 2.514678, 0.8969527, -1.196292, -2.021872
1566316764381, 8.755176, 7.5083866, -4.4834766, 0.41912845, 2.528372, 0.8809737, -1.1504856, -2.0719395
1566316764382, 8.736472, 7.472461, -4.524192, 0.14130616, 2.5505738, 0.8767126, -1.1046792, -2.1252027
1566316764391, 8.790576, 7.446116, -4.670288, -0.1341211, 2.5549016, 0.83942837, -1.0599382, -2.167813
1566316764392, 8.724957, 7.3862405, -4.624783, -0.4239185, 2.5760908, 0.813862, -1.0407634, -2.211489
1566316764401, 8.801941, 7.340735, -4.806804, -0.6945557, 2.595127, 0.77231675, -1.0045444, -2.2647521
1566316764402, 8.8036995, 7.2497244, -4.9313455, -0.7927515, 2.6161838, 0.7073356, -0.99282646, -2.3148196
1566316764414, 8.923896, 7.2281694, -5.137317, -0.9987232, 2.6292057, 0.64341974, -0.9779128, -2.3542345
1566316764415, 8.943252, 7.192244, -5.2019825, -1.092129, 2.6362357, 0.57311225, -0.96299905, -2.3861923
1566316764425, 8.937072, 7.067703, -5.319339, -1.2741505, 2.6538503, 0.49215218, -0.9576728, -2.4256072
1566316764426, 9.04758, 7.048543, -5.49178, -1.4202466, 2.6783428, 0.4111921, -0.9715212, -2.461826
1566316764435, 9.080556, 6.983877, -5.623506, -1.4346168, 2.6955113, 0.3387541, -0.9736517, -2.4905882
1566316764436, 9.106764, 6.8952613, -5.7648125, -1.468147, 2.7050004, 0.26312032, -0.9768475, -2.5086977
1566316764445, 9.374864, 7.0269876, -6.0282645, -1.4729371, 2.7229304, 0.17470337, -0.96939063, -2.538525
1566316764446, 9.444651, 6.947952, -6.219866, -1.4968873, 2.7214434, 0.07989483, -0.96086854, -2.5449169
1566316764455, 9.520663, 6.9072366, -6.3779373, -1.5016773, 2.7307625, -0.011717909, -0.95660746, -2.5577
1566316764456, 9.621861, 6.821016, -6.6030693, -1.5663428, 2.734443, -0.09054748, -0.9193232, -2.573679
1566316764463, 9.699207, 6.7755103, -6.7683253, -1.5352076, 2.731855, -0.17896444, -0.87990844, -2.5800705
1566316764464, 9.759192, 6.7635355, -6.8593364, -1.5639478, 2.719022, -0.27164245, -0.8404937, -2.5715485
1566316764473, 9.710861, 6.567144, -7.0150127, -1.4010864, 2.716784, -0.3717773, -0.793622, -2.5715485
1566316764474, 9.632587, 6.375542, -7.077283, -1.4322218, 2.6930654, -0.4495416, -0.74675035, -2.5481126
1566316764483, 9.595018, 6.2677665, -7.1299734, -1.3939015, 2.6751006, -0.55287224, -0.69029135, -2.5246768
1566316764484, 9.545877, 6.0426345, -7.2521195, -1.4202466, 2.6512108, -0.6221144, -0.62531024, -2.5001757
1566316764495, 9.380449, 5.719307, -7.32397, -1.2813355, 2.6258893, -0.70840085, -0.567786, -2.4639566
1566316764497, 9.147385, 5.4271145, -7.2545147, -1.2621753, 2.5803049, -0.7850999, -0.5006743, -2.4064324
1566316764508, 9.042303, 5.242698, -7.2616997, -1.2430152, 2.5313463, -0.8628642, -0.43675843, -2.3393207
1566316764510, 8.932912, 5.0031962, -7.311995, -1.1400293, 2.4755669, -0.94595486, -0.3717773, -2.2572954
1566316764513, 8.859517, 4.854705, -7.31439, -1.1927198, 2.4221158, -1.0162623, -0.3121225, -2.1763353
1566316764515, 8.841212, 4.7133985, -7.407796, -1.0370435, 2.3357053, -1.0823087, -0.25672874, -2.05383
1566316764523, 8.825837, 4.5577226, -7.510782, -0.8430469, 2.276331, -1.1408982, -0.20559604, -1.9590213
1566316764533, 8.914721, 4.5601172, -7.6089773, -0.88376224, 2.2152123, -1.212271, -0.15978967, -1.8471686
1566316764535, 8.917703, 4.5577226, -7.6113725, -0.9053174, 2.1539829, -1.2612731, -0.10759171, -1.7427727
1566316764537, 9.035469, 4.550537, -7.7526784, -0.91010743, 2.088784, -1.325189, -0.0479369, -1.6138756
1566316764544, 9.310172, 4.720584, -7.965835, -0.9699829, 2.0346947, -1.3795174, -0.0010652645, -1.4956313
1566316764545, 9.353371, 4.766089, -7.9921803, -0.94603276, 1.9928026, -1.4327807, 0.05965481, -1.3837786
1566316764554, 9.602003, 4.8906302, -8.198153, -1.0346485, 1.9601564, -1.4956313, 0.12037488, -1.2612731
1566316764556, 9.615351, 4.82357, -8.248447, -1.0729688, 1.9377238, -1.5584819, 0.18429075, -1.1366372
1566316764567, 9.733622, 4.8571, -8.349038, -1.2022998, 1.9312215, -1.6266588, 0.25672874, -1.0088054
1566316764569, 9.839827, 4.9241605, -8.418494, -1.3052857, 1.9454743, -1.700162, 0.3121225, -0.8926916
1566316764575, 9.686819, 4.7229786, -8.353828, -1.3196558, 1.9662485, -1.7726, 0.37284255, -0.76485986
1566316764577, 9.678878, 4.7253737, -8.346643, -1.2981006, 1.9900538, -1.8439728, 0.41758367, -0.62104917
1566316764586, 9.610286, 4.5744877, -8.356223, -1.2669654, 2.033868, -1.9153455, 0.47191215, -0.49534798
1566316764588, 9.465641, 4.5792775, -8.207732, -1.1232642, 2.0779033, -1.9845877, 0.50173956, -0.3568636
1566316764595, 9.395943, 4.5768824, -8.143066, -1.0130934, 2.1162033, -2.034655, 0.53795856, -0.221575
1566316764598, 9.3312435, 4.512217, -8.133487, -0.74724615, 2.16938, -2.091114, 0.572047, -0.07882957
1566316764607, 9.352782, 4.509822, -8.169412, -0.62989014, 2.2100482, -2.1315942, 0.58056915, 0.05965481
1566316764609, 9.360546, 4.521797, -8.190968, -0.28500733, 2.2383227, -2.1454427, 0.608266, 0.19281286
1566316764616, 9.550127, 4.7636943, -8.277188, -0.016765138, 2.2854283, -2.1667478, 0.63915867, 0.34621096
1566316764619, 9.669786, 4.8379397, -8.370594, 0.17962648, 2.3137631, -2.1603563, 0.6711166, 0.4857606
1566316764625, 9.931566, 5.0894165, -8.509504, 0.5676197, 2.3280709, -2.1283984, 0.7137272, 0.61678815
1566316764628, 10.085066, 5.252278, -8.562195, 0.90052736, 2.3300512, -2.082592, 0.72437984, 0.753142
1566316764636, 10.137232, 5.3169436, -8.54064, 1.2454102, 2.3188715, -2.010154, 0.7584683, 0.8724516
1566316764639, 10.259419, 5.4534597, -8.54543, 1.5783179, 2.2965949, -1.9259981, 0.773382, 0.9832391
1566316764647, 10.314695, 5.5708156, -8.459209, 1.949546, 2.2724516, -1.8365159, 0.76485986, 1.0982877
1566316764649, 10.347872, 5.7145166, -8.339458, 2.208208, 2.2439044, -1.7342505, 0.7520767, 1.2090752
1566316764657, 10.500905, 5.9037232, -8.380174, 2.2776637, 2.2120605, -1.6106799, 0.73290193, 1.3273195
1566316764660, 10.70214, 6.10251, -8.404124, 2.5818312, 2.1791754, -1.4935007, 0.7041398, 1.4221281
1566316764665, 11.025639, 6.4282327, -8.56459, 2.6249416, 2.1391761, -1.3677995, 0.67963874, 1.4977618
1566316764668, 11.120547, 6.543194, -8.586145, 2.6704469, 2.1138158, -1.2399678, 0.6466155, 1.5851135
1566316764677, 11.108779, 6.672525, -8.485555, 2.6225464, 2.0895603, -1.1185277, 0.6263755, 1.6500946
1566316764679, 11.047495, 6.720425, -8.337064, 2.7159522, 2.07845, -0.97897804, 0.60720074, 1.7299895
1566316764685, 10.730972, 6.543194, -8.061636, 2.7111623, 2.0807822, -0.8522116, 0.59228706, 1.8034927
1566316764687, 10.372735, 6.4042826, -7.7143583, 2.6584718, 2.1044798, -0.71585774, 0.58056915, 1.8919097
1566316764695, 10.085459, 6.236631, -7.429351, 2.7614577, 2.155581, -0.5773733, 0.5613944, 1.9995013
1566316764698, 9.768544, 6.013894, -7.1706886, 2.799778, 2.2230823, -0.45380265, 0.54435015, 2.107093
1566316764705, 9.706083, 6.0091043, -7.0988383, 2.7758276, 2.2821975, -0.3174488, 0.5091964, 2.2019017
1566316764708, 9.741886, 6.1695704, -7.0293827, 2.7255323, 2.3627, -0.18535602, 0.48363006, 2.3052323
1566316764716, 9.886059, 6.4186525, -7.065308, 2.572251, 2.434128, -0.053263225, 0.45593318, 2.3904533
1566316764718, 10.086051, 6.69408, -7.1395535, 2.43813, 2.5183027, 0.082025364, 0.42397526, 2.481001
1566316764726, 10.451259, 7.1203933, -7.2401443, 2.4716604, 2.6012166, 0.2130529, 0.4101268, 2.5598304
1566316764729, 10.778311, 7.441326, -7.414981, 2.411785, 2.699373, 0.36964676, 0.3920173, 2.6450517
1566316764735, 11.197752, 7.8532696, -7.661668, 2.2393434, 2.767221, 0.5006743, 0.37071204, 2.6961844
1566316764738, 11.430466, 8.2197075, -7.6137676, 2.2632935, 2.8374941, 0.65194184, 0.36218992, 2.7377295
1566316764746, 11.727527, 8.586145, -7.699988, 2.1267774, 2.9080858, 0.78936094, 0.34834146, 2.7771444
1566316764748, 12.134082, 9.1202345, -7.7359133, 2.0525317, 2.9658453, 0.9321064, 0.30999196, 2.7984498
1566316764756, 12.521235, 9.618399, -7.822134, 1.7555494, 3.0130284, 1.0578076, 0.28336033, 2.8069718
1566316764758, 12.755461, 9.924961, -7.89638, 1.3579761, 3.029241, 1.1813782, 0.2609898, 2.7771444
1566316764767, 13.2128315, 10.471025, -7.9538603, 1.2933106, 3.0476956, 1.2921658, 0.23116238, 2.7505128
1566316764769, 13.678005, 10.952425, -8.126302, 1.0466236, 3.0557113, 1.3965617, 0.2066613, 2.7100327
1566316764777, 14.086654, 11.366763, -8.298743, 0.6011499, 3.034682, 1.478587, 0.18002969, 2.6439865
1566316764780, 14.42654, 11.812237, -8.274793, 0.3520679, 2.9822, 1.5414376, 0.13848437, 2.549178
1566316764786, 14.562896, 12.042159, -8.188572, -0.10777588, 2.9273825, 1.591505, 0.112918034, 2.4543693
1566316764789, 14.567017, 12.118799, -8.076006, -0.33290774, 2.8643067, 1.6213325, 0.08948222, 2.3595607
1566316764797, 14.456999, 12.032578, -7.9778104, -0.7592212, 2.7797167, 1.6447684, 0.053263225, 2.240251
1566316764799, 14.156583, 11.788286, -7.7598634, -1.1088941, 2.70439, 1.6405072, 0.035153728, 2.1497037
1566316764808, 13.759394, 11.498489, -7.422166, -1.4202466, 2.6387959, 1.6405072, 0.033023197, 2.066613
1566316764810, 13.25732, 11.074571, -7.1251836, -1.5304176, 2.5977192, 1.639442, 0.05006743, 2.014415
1566316764818, 12.758177, 10.667418, -6.830596, -1.5232325, 2.561596, 1.6447684, 0.07882957, 1.9622171
1566316764820, 12.129057, 10.219549, -6.3779373, -1.4130616, 2.534546, 1.6437031, 0.09267801, 1.9270633
1566316764827, 11.536745, 9.74773, -5.9947343, -1.463357, 2.501486, 1.6341157, 0.10865697, 1.8908445
1566316764829, 11.001368, 9.321417, -5.6666164, -1.4250367, 2.4931185, 1.639442, 0.112918034, 1.8748654
1566316764841, 10.419004, 8.952583, -5.1468973, -1.3843213, 2.4777422, 1.627724, 0.10226539, 1.865278
1566316764843, 10.039784, 8.715476, -4.775669, -1.4250367, 2.4443076, 1.603223, 0.08948222, 1.8429075
1566316764849, 9.751609, 8.56459, -4.3709106, -1.6238233, 2.4057274, 1.5584819, 0.07350325, 1.8311896
1566316764850, 9.542544, 8.423284, -4.045188, -1.9351759, 2.342666, 1.5041534, 0.060720075, 1.7949706
1566316764859, 9.330767, 8.2125225, -3.8679566, -2.1579127, 2.2702718, 1.4263891, 0.06178534, 1.7651432
1566316764861, 9.433773, 8.344249, -3.5182838, -2.6441016, 2.1692023, 1.3230585, 0.099069595, 1.716141
1566316764868, 9.44798, 8.368198, -3.3338673, -2.8500733, 2.0564065, 1.2101405, 0.12996227, 1.6575515
1566316764870, 9.584871, 8.449629, -3.1207106, -3.276387, 1.9317335, 1.0769824, 0.17896444, 1.5936357
1566316764878, 9.680119, 8.487949, -3.0847852, -3.4847536, 1.7978675, 0.9374327, 0.24927188, 1.5137408
1566316764880, 9.757054, 8.581355, -2.9003687, -3.6260598, 1.6557908, 0.7850999, 0.3206446, 1.4221281
1566316764890, 9.805907, 8.686736, -2.7662477, -3.6116896, 1.5066445, 0.62531024, 0.40266997, 1.3102753
1566316764892, 9.909448, 8.749006, -2.7638526, -3.7434156, 1.4010795, 0.47404268, 0.49534798, 1.2218584
1566316764899, 9.919362, 8.823253, -2.7542725, -3.5997145, 1.2832375, 0.3334278, 0.5635249, 1.103614
1566316764901, 9.905395, 8.847202, -2.816543, -3.4512234, 1.2022513, 0.20026971, 0.644485, 0.99495703
1566316764910, 9.8660965, 8.828042, -3.0201197, -3.2069314, 1.1168061, 0.0958738, 0.6892261, 0.87351686
1566316764912, 9.678072, 8.756192, -3.0991554, -2.7183473, 1.0885178, 0.0031957934, 0.7616641, 0.777643
1566316764918, 9.466324, 8.6077, -3.1901662, -2.311194, 1.0557722, -0.05219796, 0.80533993, 0.680704
1566316764920, 9.176929, 8.399334, -3.2404616, -1.7794995, 1.0186796, -0.084155895, 0.8127968, 0.608266
1566316764928, 8.958249, 8.214917, -3.290757, -1.3915064, 0.96301854, -0.112918034, 0.7957525, 0.5305017
1566316764931, 8.74375, 7.9682302, -3.4416432, -1.0562036, 0.93508446, -0.12144015, 0.79681784, 0.47404268
1566316764943, 8.429934, 7.6664577, -3.4009278, -0.85023195, 0.8843626, -0.11930962, 0.7680557, 0.42184472
1566316764945, 8.284287, 7.407796, -3.65959, -0.6011499, 0.83861345, -0.10972224, 0.73822826, 0.38242993
1566316764948, 8.297677, 7.33355, -3.8535867, -0.46942386, 0.80277276, -0.09054748, 0.70627034, 0.37071204
1566316764951, 8.248256, 7.1539235, -4.061953, -0.5963599, 0.75515527, -0.08522116, 0.6711166, 0.3355583
1566316764959, 8.264247, 7.0509377, -4.24158, -0.76880133, 0.7178792, -0.082025364, 0.63915867, 0.31638354
1566316764961, 8.327106, 7.0054326, -4.414021, -0.88376224, 0.70015275, -0.084155895, 0.62317973, 0.30786142
1566316764970, 8.239593, 6.799461, -4.5601172, -0.92926764, 0.68079066, -0.10439592, 0.59761333, 0.3089267
1566316764973, 8.259137, 6.7324004, -4.646338, -1.1400293, 0.66846514, -0.12037488, 0.5752428, 0.31851408
1566316764980, 8.198423, 6.557564, -4.775669, -1.1855347, 0.6588727, -0.15126756, 0.55287224, 0.32490566
1566316764989, 8.1804285, 6.468948, -4.8379397, -1.2909156, 0.65795237, -0.18642128, 0.5336975, 0.33662358
1566316764991, 8.033593, 6.253396, -4.893025, -1.22146, 0.68830425, -0.21411815, 0.5411543, 0.36751625
1566316764994, 8.1189575, 6.246211, -5.039121, -1.2286451, 0.7125361, -0.23755397, 0.5400891, 0.39947417
1566316765000, 7.9823523, 6.07856, -5.017566, -1.2621753, 0.7442334, -0.26631612, 0.53795856, 0.43995422
1566316765002, 7.996315, 6.0737696, -5.079837, -1.1160791, 0.7919853, -0.28975195, 0.53795856, 0.50387007
1566316765011, 8.005626, 6.0330544, -5.149292, -1.0849439, 0.8262175, -0.30360037, 0.53476274, 0.551807
1566316765013, 7.968809, 5.9396486, -5.252278, -0.79754156, 0.8770006, -0.31638354, 0.53476274, 0.61891866
1566316765021, 8.024666, 6.0833497, -5.206773, -0.52690434, 0.9043418, -0.3089267, 0.5187838, 0.67324716
1566316765023, 8.15136, 6.1719656, -5.3121533, -0.364043, 0.9401235, -0.294013, 0.5070659, 0.7350325
1566316765031, 8.348541, 6.4258375, -5.326524, -0.18681154, 0.9735719, -0.27377295, 0.4825648, 0.8000136
1566316765033, 8.700965, 6.71324, -5.53489, -0.06466553, 1.0040139, -0.24074976, 0.4825648, 0.84688526
1566316765042, 9.16638, 7.094048, -5.8031325, 0.14370118, 1.0452899, -0.20879184, 0.48469532, 0.902279
1566316765044, 9.559409, 7.4054008, -6.0426345, 0.17004639, 1.0701307, -0.16618125, 0.4676511, 0.94808537
1566316765050, 10.048437, 7.8820095, -6.231841, 0.09580079, 1.0788405, -0.11611383, 0.4612595, 0.9683254
1566316765053, 10.466325, 8.265213, -6.4210477, 0.019160157, 1.1093849, -0.09054748, 0.46658584, 1.0024139
1566316765062, 10.734269, 8.53106, -6.5144534, -0.086220704, 1.1322659, -0.05539375, 0.47830373, 1.0247844
1566316765064, 11.030505, 8.789722, -6.662945, -0.1341211, 1.1521735, -0.025566347, 0.48682585, 1.0439591
1566316765070, 11.415178, 9.14658, -6.828201, -0.14849122, 1.1783738, 0.017044231, 0.5123922, 1.0610034
1566316765072, 11.59404, 9.350157, -6.8497562, -0.2778223, 1.2140225, 0.03834952, 0.535828, 1.0887003
1566316765080, 11.81051, 9.498648, -7.0102224, -0.34727785, 1.2212601, 0.07243799, 0.54435015, 1.0908308
1566316765083, 12.070506, 9.702225, -7.1635036, -0.4981641, 1.2389429, 0.10652645, 0.55287224, 1.103614
1566316765092, 12.109053, 9.783655, -7.1203933, -0.45744875, 1.2396117, 0.1470065, 0.5251754, 1.1132014
1566316765094, 12.258052, 9.975257, -7.1156034, -0.34967285, 1.2505882, 0.18429075, 0.5049353, 1.1291803
1566316765101, 12.3403225, 10.075848, -7.1203933, -0.24668702, 1.2546351, 0.2396845, 0.47404268, 1.1366372
1566316765104, 12.520063, 10.34888, -7.0413575, -0.2682422, 1.2515235, 0.28229508, 0.43569317, 1.1387677
1566316765111, 12.589377, 10.4638405, -6.998247, -0.1580713, 1.2494558, 0.33768883, 0.38456047, 1.139833
1566316765121, 12.73284, 10.708133, -6.8880763, -0.12454102, 1.2376672, 0.3888215, 0.3174488, 1.1313108
1566316765123, 12.787797, 10.844649, -6.7755103, -0.117355965, 1.2246192, 0.44741106, 0.25033715, 1.1121361
1566316765126, 12.84452, 11.060201, -6.5288234, -0.16765137, 1.198358, 0.48149952, 0.17470337, 1.0833739
1566316765130, 12.8747225, 11.151212, -6.4282327, -0.2945874, 1.1629323, 0.5187838, 0.082025364, 1.0375676
1566316765133, 13.093797, 11.486514, -6.2677665, -0.47181886, 1.1225481, 0.5432849, -0.017044231, 0.9821738
1566316765140, 13.513364, 11.967913, -6.253396, -0.5245093, 1.0770688, 0.55606806, -0.10759171, 0.91612744
1566316765142, 13.972065, 12.396622, -6.3851223, -0.87897223, 1.0133011, 0.5539375, -0.20026971, 0.8245147
1566316765153, 14.590627, 12.945081, -6.6413894, -1.096919, 0.9479064, 0.52837116, -0.2727077, 0.73822826
1566316765155, 15.094856, 13.289964, -7.0054326, -1.468147, 0.8566435, 0.49321744, -0.32384038, 0.62104917
1566316765162, 15.621754, 13.711488, -7.2425394, -1.8920655, 0.7579115, 0.44741106, -0.35153726, 0.5006743
1566316765164, 15.945379, 13.919854, -7.5155716, -2.0022364, 0.6274299, 0.38562572, -0.34514567, 0.35473305
1566316765174, 16.129185, 14.06595, -7.558682, -2.2728736, 0.49779776, 0.32170987, -0.30466563, 0.22690132
1566316765176, 16.076134, 13.99889, -7.5083866, -2.4692652, 0.37539804, 0.2609898, -0.2514024, 0.098004326
1566316765182, 15.946737, 13.881534, -7.4509063, -2.4668703, 0.27399048, 0.18002969, -0.20453078, -0.02876214
1566316765184, 15.594675, 13.558207, -7.33355, -2.3638844, 0.22773999, 0.10652645, -0.14807177, -0.13635385
1566316765191, 15.431624, 13.409715, -7.2736745, -2.3255641, 0.26598567, 0.04261058, -0.10226539, -0.24181503
1566316765194, 15.173249, 13.103152, -7.335945, -2.1722827, 0.3215211, 0.0, -0.0628506, -0.3153183
1566316765204, 15.032978, 12.901971, -7.4676714, -1.9399658, 0.40369028, -0.060720075, -0.023435818, -0.39840892
1566316765207, 14.780174, 12.564273, -7.580237, -1.7699195, 0.47099265, -0.10013486, 0.0053263223, -0.46019423
1566316765212, 14.529872, 12.274476, -7.6113725, -1.587898, 0.54126656, -0.12676647, 0.033023197, -0.5251754
1566316765214, 14.139781, 11.891273, -7.4964113, -1.5280225, 0.5941445, -0.14594123, 0.083090626, -0.5699165
1566316765222, 13.775708, 11.515254, -7.453301, -1.2717555, 0.64427716, -0.15765914, 0.10546118, -0.61572284
1566316765225, 13.211322, 11.096126, -7.0988383, -1.0106983, 0.6720814, -0.1587244, 0.111852765, -0.64341974
1566316765232, 12.798444, 10.796748, -6.832991, -0.73527104, 0.6839205, -0.16618125, 0.082025364, -0.6583334
1566316765233, 12.639999, 10.665023, -6.75156, -0.6658155, 0.70295995, -0.15020229, 0.03089267, -0.6860303
1566316765242, 12.765737, 10.741663, -6.8808913, -0.48379397, 0.7170045, -0.1470065, -0.034088463, -0.700944
1566316765244, 12.906616, 10.813514, -7.031778, -0.45026368, 0.7398267, -0.14807177, -0.12037488, -0.71479243
1566316765252, 13.312233, 11.091336, -7.3455253, -0.49097902, 0.7907076, -0.12996227, -0.2066613, -0.7520767
1566316765257, 14.03892, 11.625425, -7.838899, -0.70174074, 0.87775075, -0.15233281, -0.2972088, -0.8117315
1566316765262, 14.548183, 12.0182085, -8.164622, -0.7424561, 0.9533557, -0.16085494, -0.36964676, -0.86392945
1566316765263, 15.091484, 12.3559065, -8.595725, -1.094524, 1.0473831, -0.19281286, -0.42077947, -0.9395633
1566316765275, 15.388072, 12.492422, -8.885523, -1.334026, 1.1385126, -0.23222765, -0.47617322, -1.0077401
1566316765277, 15.648878, 12.581038, -9.17053, -1.583108, 1.2238479, -0.28549087, -0.52411014, -1.0684602
1566316765282, 15.601225, 12.418177, -9.309442, -1.587898, 1.304908, -0.33129725, -0.58269966, -1.1195929
1566316765285, 15.747422, 12.444522, -9.529783, -1.5160475, 1.3892821, -0.37603834, -0.6348976, -1.1771172
1566316765293, 15.790964, 12.396622, -9.685459, -1.3675562, 1.4463153, -0.41758367, -0.68816084, -1.2016183
1566316765295, 15.812159, 12.262501, -9.920172, -1.1160791, 1.5121903, -0.4463458, -0.757403, -1.2303804
1566316765304, 15.795986, 12.214601, -9.975257, -0.90052736, 1.5609062, -0.46658584, -0.80747044, -1.2516857
1566316765307, 15.708146, 12.1235895, -9.965676, -0.6706055, 1.6057949, -0.4612595, -0.85540736, -1.2783173
1566316765314, 15.445837, 11.934382, -9.79563, -0.43589357, 1.6410981, -0.48149952, -0.90654004, -1.2804478
1566316765317, 15.266058, 11.852952, -9.618399, -0.21555176, 1.6705511, -0.48363006, -0.9491506, -1.2868395
1566316765323, 14.927292, 11.630216, -9.357342, -0.047900394, 1.704297, -0.49002165, -0.9960223, -1.293231
1566316765326, 14.6852045, 11.469749, -9.17053, -0.038320314, 1.7376256, -0.48682585, -1.0322412, -1.3102753
1566316765333, 14.419143, 11.316468, -8.935819, 0.019160157, 1.7783986, -0.49854377, -1.0695255, -1.3305153
1566316765336, 14.173215, 11.206297, -8.677156, 0.07664063, 1.7986479, -0.5123922, -1.0887003, -1.3369069
1566316765342, 13.947079, 11.153606, -8.372989, 0.10538086, 1.8282523, -0.5251754, -1.1014835, -1.361408
1566316765345, 13.747559, 11.100916, -8.109536, 0.021555176, 1.8692648, -0.54435015, -1.099353, -1.4104102
1566316765352, 13.466488, 10.9644, -7.817344, 0.13172609, 1.9052795, -0.5795039, -1.0833739, -1.4562165
1566316765355, 13.166313, 10.813514, -7.510782, 0.08861572, 1.928426, -0.5933523, -1.0599382, -1.4977618
1566316765364, 12.845736, 10.593172, -7.2640944, 0.17483643, 1.9641818, -0.62104917, -1.031176, -1.5520903
1566316765367, 12.493426, 10.423125, -6.8737063, 0.44307864, 1.9935291, -0.6359629, -0.99282646, -1.6074841
1566316765374, 12.150975, 10.162068, -6.6437845, 0.488584, 2.0227036, -0.6423545, -0.9502159, -1.6660736
1566316765376, 11.799325, 9.975257, -6.253396, 0.7831714, 2.0548794, -0.628506, -0.9054748, -1.7342505
1566316765388, 11.500989, 9.663904, -6.1599903, 0.96758795, 2.0704997, -0.5997439, -0.8511463, -1.7896442
1566316765391, 10.995228, 9.268726, -5.7863674, 1.22625, 2.0897284, -0.5773733, -0.8032094, -1.8407769
1566316765393, 10.609366, 9.022039, -5.4127445, 1.3651612, 2.1134198, -0.5475459, -0.7637946, -1.892975
1566316765395, 10.393544, 8.837623, -5.233118, 1.5926881, 2.1339853, -0.49960902, -0.73290193, -1.9409119
1566316765404, 10.222248, 8.674761, -5.0271463, 1.9926564, 2.1585152, -0.43888897, -0.69987875, -1.9941751
1566316765406, 10.243403, 8.653206, -5.039121, 2.1579127, 2.173693, -0.35792887, -0.6498113, -2.0431771
1566316765416, 10.216158, 8.634046, -4.984036, 2.2321582, 2.20023, -0.26844665, -0.6114618, -2.0964406
1566316765419, 10.270372, 8.566985, -5.127737, 2.4069948, 2.2437084, -0.1768339, -0.5592638, -2.1656826
1566316765425, 10.175936, 8.464, -5.120552, 2.3854396, 2.2831323, -0.09267801, -0.5113269, -2.223207
1566316765427, 10.049641, 8.296348, -5.1564775, 2.3614893, 2.335606, 0.014913702, -0.47830373, -2.2860575
1566316765437, 9.872771, 8.157437, -5.0582814, 2.311194, 2.3870287, 0.10333065, -0.45806372, -2.340386
1566316765439, 9.604832, 7.89638, -4.996011, 2.2225783, 2.4237502, 0.19813919, -0.43249738, -2.376605
1566316765444, 9.381316, 7.647298, -5.0343313, 2.0453467, 2.4679768, 0.28016454, -0.41864893, -2.4160197
1566316765447, 9.259404, 7.5970025, -5.0031962, 1.7292042, 2.519101, 0.34088463, -0.4111921, -2.461826
1566316765457, 9.026397, 7.359895, -4.993616, 1.5399976, 2.547049, 0.40373522, -0.41758367, -2.4799356
1566316765459, 8.937911, 7.2904396, -5.0031962, 1.3052857, 2.6039765, 0.45912898, -0.42397526, -2.5278726
1566316765465, 8.921576, 7.1611085, -5.1947975, 1.1520045, 2.6428254, 0.49534798, -0.44421527, -2.5577
1566316765468, 8.765711, 6.964717, -5.254673, 0.847837, 2.6752815, 0.5187838, -0.46339005, -2.5832663
1566316765477, 8.811364, 6.9958525, -5.319339, 0.6346802, 2.7174153, 0.5411543, -0.479369, -2.6194854
1566316765479, 8.815909, 6.967112, -5.384004, 0.4382886, 2.7448306, 0.551807, -0.5113269, -2.6397252
1566316765486, 8.718762, 6.7779055, -5.479805, 0.2203418, 2.7876174, 0.5763081, -0.53795856, -2.6738138
1566316765488, 8.615358, 6.6509695, -5.4750147, 0.11496094, 2.8068209, 0.5656554, -0.5635249, -2.6908581
1566316765496, 8.676764, 6.6821046, -5.53489, -0.026345216, 2.8321211, 0.55606806, -0.5965481, -2.7121632
1566316765499, 8.648905, 6.478528, -5.726492, -0.19878663, 2.8466952, 0.5422196, -0.63383234, -2.7217507
1566316765505, 8.710305, 6.5120583, -5.7648125, -0.47900394, 2.8725224, 0.5070659, -0.6593987, -2.7494476
1566316765507, 8.687261, 6.440208, -5.807923, -0.51013917, 2.8868032, 0.47510794, -0.6870956, -2.763296
1566316765515, 8.80369, 6.3851223, -6.023474, -0.6730005, 2.9038002, 0.44421527, -0.7307714, -2.775014
1566316765518, 8.863753, 6.330037, -6.1480155, -0.83586186, 2.910235, 0.38562572, -0.7488809, -2.7856665
1566316765525, 8.933686, 6.2510014, -6.325247, -0.852627, 2.911388, 0.33981937, -0.77125144, -2.7867317
1566316765530, 9.047232, 6.231841, -6.4833183, -0.9915381, 2.9029238, 0.29294774, -0.7584683, -2.7867317
1566316765535, 9.144042, 6.1887307, -6.6533647, -1.0226734, 2.9117522, 0.23542345, -0.757403, -2.8016455
1566316765540, 9.166336, 6.0833497, -6.7707205, -1.0825489, 2.8824658, 0.17257284, -0.74461985, -2.779275
1566316765545, 9.153971, 5.982759, -6.840176, -1.101709, 2.8585281, 0.11824436, -0.71798825, -2.7643614
1566316765548, 9.019993, 5.6833816, -6.912027, -1.1328443, 2.8349628, 0.0479369, -0.70200926, -2.7462518
1566316765555, 8.931515, 5.49657, -6.952742, -1.104104, 2.7943132, -0.004261058, -0.65513766, -2.7164245
1566316765558, 8.777705, 5.257068, -6.964717, -0.9508228, 2.7548149, -0.058589544, -0.6295713, -2.6812706
1566316765570, 8.612277, 4.974456, -6.974297, -0.8861573, 2.7111146, -0.11717909, -0.6114618, -2.63866
1566316765572, 8.504277, 4.6990285, -7.0198026, -0.98195803, 2.6512039, -0.17896444, -0.5784386, -2.5811357
1566316765576, 8.374546, 4.5696974, -6.9551373, -0.9364527, 2.5822353, -0.22690132, -0.5539375, -2.5118935
1566316765578, 8.272885, 4.2511597, -7.031778, -0.96040285, 2.5058503, -0.28016454, -0.5251754, -2.4341292
1566316765589, 8.190306, 4.028423, -7.079678, -0.855022, 2.425424, -0.350472, -0.49747851, -2.347843
1566316765592, 8.047758, 3.908672, -6.9790874, -0.88376224, 2.3408232, -0.39840892, -0.4644553, -2.2594259
1566316765598, 8.017348, 3.7338357, -7.031778, -0.9436377, 2.244652, -0.45699844, -0.4463458, -2.1518342
1566316765601, 8.059033, 3.6691701, -7.096443, -1.0609937, 2.1438382, -0.5123922, -0.4250405, -2.0378509
1566316765606, 8.198637, 3.6116896, -7.2928348, -0.99393314, 2.0600278, -0.5773733, -0.4048005, -1.9355855
1566316765609, 8.34466, 3.652405, -7.4197707, -1.1136842, 1.9531481, -0.63702816, -0.38562572, -1.8056233
1566316765619, 8.480682, 3.5709743, -7.6017923, -1.1759547, 1.8618934, -0.7052051, -0.34940675, -1.6873789
1566316765621, 8.602971, 3.5685792, -7.7215433, -1.2861255, 1.7738303, -0.7819041, -0.29933932, -1.5638082
1566316765627, 8.711235, 3.5134938, -7.838899, -1.4465919, 1.6831628, -0.8586032, -0.26525086, -1.4231933
1566316765630, 8.737884, 3.4296682, -7.8868, -1.5447876, 1.5992271, -0.9416938, -0.23009712, -1.2719258
1566316765638, 8.826243, 3.3242872, -8.006551, -1.6573536, 1.5306531, -1.0386329, -0.17896444, -1.1100056
1566316765640, 8.669936, 3.1231055, -7.8987746, -1.7387843, 1.4825803, -1.1313108, -0.12357068, -0.9502159
1566316765648, 8.591882, 2.9051588, -7.8891945, -1.7723145, 1.4580895, -1.2389026, -0.06711166, -0.76592517
1566316765651, 8.578357, 2.7446926, -7.927515, -1.7914747, 1.454734, -1.3401027, -0.020240024, -0.5656554
1566316765657, 8.42258, 2.5339308, -7.8772197, -1.5711329, 1.4860748, -1.4413028, 0.025566347, -0.36112466
1566316765668, 8.319177, 2.3327491, -7.8269243, -1.583108, 1.5350553, -1.526524, 0.05965481, -0.15020229
1566316765671, 8.1404085, 2.1100123, -7.7359133, -1.4034815, 1.6189921, -1.6149409, 0.08948222, 0.07137272
1566316765673, 7.962331, 2.064507, -7.6017923, -1.1615845, 1.7191484, -1.6884441, 0.0958738, 0.3089267
1566316765677, 7.9538407, 2.1483326, -7.6137676, -0.82388675, 1.8377354, -1.75236, 0.10652645, 0.5432849
1566316765680, 8.017505, 2.4501052, -7.6209526, -0.44547364, 1.9487565, -1.7896442, 0.099069595, 0.76485986
1566316765689, 8.292063, 2.7351124, -7.8269243, -0.12933107, 2.0582798, -1.808819, 0.10226539, 0.9768475
1566316765691, 8.810702, 3.3602126, -8.140672, 0.25866213, 2.1620643, -1.8098843, 0.11504856, 1.1771172
1566316765697, 9.0804825, 3.7242556, -8.267608, 0.48139894, 2.2560244, -1.8024274, 0.11611383, 1.3518206
1566316765700, 9.486471, 4.3421707, -8.404124, 0.71371585, 2.3382187, -1.7811222, 0.12783173, 1.5094798
1566316765712, 9.66691, 4.639153, -8.428074, 0.94603276, 2.414613, -1.7417074, 0.17789917, 1.6628778
1566316765715, 9.805447, 4.912185, -8.411309, 1.1256592, 2.5004635, -1.707619, 0.221575, 1.8130801
1566316765721, 10.008368, 5.221143, -8.440049, 1.2933106, 2.5689988, -1.6682042, 0.26525086, 1.9355855
1566316765724, 10.048343, 5.4606447, -8.3179035, 1.4010864, 2.6366105, -1.6149409, 0.30786142, 2.0612867
1566316765728, 10.303277, 5.7696023, -8.387359, 1.587898, 2.6937277, -1.5531555, 0.34834146, 2.1731396
1566316765731, 10.570738, 6.023474, -8.51669, 1.710044, 2.7511013, -1.4849787, 0.37710363, 2.2849922
1566316765738, 10.919334, 6.3947024, -8.6627865, 1.8154249, 2.7981822, -1.4189322, 0.4101268, 2.376605
1566316765740, 11.274614, 6.72761, -8.866363, 1.8010547, 2.8388538, -1.3369069, 0.44208476, 2.4650218
1566316765748, 11.392961, 6.8928666, -8.878338, 1.8609302, 2.870025, -1.2687299, 0.48149952, 2.5289378
1566316765751, 11.362066, 6.967112, -8.765772, 1.9279908, 2.9182146, -1.1877699, 0.5209143, 2.6141589
1566316765761, 11.321129, 6.9886675, -8.727451, 1.7771046, 2.9550295, -1.1121361, 0.5635249, 2.67914
1566316765763, 11.121005, 6.943162, -8.490345, 1.839375, 3.0195215, -1.026915, 0.6018744, 2.775014
1566316765768, 11.005378, 6.9311867, -8.310719, 2.0022364, 3.072781, -0.9374327, 0.62317973, 2.8591697
1566316765772, 10.815861, 6.9000516, -8.040081, 2.1746778, 3.1222293, -0.85540736, 0.62531024, 2.936934
1566316765779, 10.783666, 6.947952, -7.8724294, 2.4572902, 3.164856, -0.74781567, 0.6018744, 3.0157638
1566316765781, 10.951082, 7.194639, -7.8341093, 2.6057813, 3.2056923, -0.6178534, 0.5699165, 3.093528
1566316765789, 11.106527, 7.422166, -7.783814, 2.7710378, 3.255433, -0.49002165, 0.535828, 3.1734228
1566316765791, 11.383446, 7.7550735, -7.8341093, 2.8404932, 3.2839954, -0.33449304, 0.49747851, 3.2288165
1566316765799, 11.74132, 8.181387, -7.8724294, 2.9913795, 3.3307834, -0.1768339, 0.46232477, 3.2937977
1566316765802, 12.121596, 8.6627865, -7.92991, 3.0009596, 3.3528957, -0.024501082, 0.4250405, 3.3257556
1566316765811, 12.46611, 9.144185, -7.9849954, 2.8333082, 3.3837235, 0.128897, 0.39840892, 3.3577135
1566316765815, 12.87733, 9.639954, -8.085587, 2.7422974, 3.3974276, 0.30040458, 0.36751625, 3.3641052
1566316765819, 13.368881, 10.226734, -8.202942, 2.6177564, 3.4043608, 0.45486793, 0.350472, 3.355583
1566316765821, 13.768987, 10.722503, -8.291558, 2.4213648, 3.4033298, 0.6114618, 0.32490566, 3.3321471
1566316765832, 14.358184, 11.417059, -8.442444, 2.1291726, 3.4039235, 0.76592517, 0.29614353, 3.303385
1566316765834, 14.90597, 11.987073, -8.6627865, 1.8585353, 3.3737016, 0.9129316, 0.27377295, 3.2362735
1566316765839, 15.386592, 12.569063, -8.732242, 1.585503, 3.339632, 1.0492855, 0.26312032, 3.1595743
1566316765841, 15.808959, 13.036092, -8.840017, 1.3555812, 3.2933884, 1.1739215, 0.23648871, 3.0679617
1566316765852, 16.075928, 13.3689995, -8.854387, 1.1424243, 3.2423024, 1.2911005, 0.19387813, 2.9678268
1566316765854, 16.322868, 13.622871, -8.950189, 0.8646021, 3.1748738, 1.3869743, 0.15446335, 2.851713
1566316765860, 16.241695, 13.663587, -8.772957, 0.366438, 3.1006627, 1.470065, 0.12676647, 2.727077
1566316765862, 16.301678, 13.725858, -8.794512, 0.045505375, 3.0241418, 1.5286545, 0.09054748, 2.6077673
1566316765872, 16.06311, 13.567786, -8.58854, -0.41912845, 2.9544995, 1.5733956, 0.051132694, 2.5001757
1566316765874, 15.68205, 13.2420635, -8.368198, -0.74006104, 2.880093, 1.6000272, 0.013848438, 2.3947146
1566316765882, 15.132284, 12.913946, -7.829319, -0.9580079, 2.8098474, 1.6170714, -0.023435818, 2.2977755
1566316765885, 14.64734, 12.466077, -7.6113725, -1.099314, 2.7574625, 1.6170714, -0.05752428, 2.2327943
1566316765890, 14.044403, 12.039763, -7.117998, -1.2741505, 2.703147, 1.6117451, -0.07243799, 2.1688783
1566316765892, 13.527761, 11.606265, -6.7946706, -1.4585669, 2.6648536, 1.5936357, -0.094808534, 2.1337247
1566316765900, 12.989818, 11.211087, -6.365962, -1.587898, 2.6167471, 1.5584819, -0.10013486, 2.0996363
1566316765903, 12.522341, 10.8997345, -5.9228835, -1.710044, 2.5845, 1.5425029, -0.10865697, 2.0708742
1566316765910, 12.0900135, 10.609937, -5.513335, -1.7890797, 2.5246913, 1.4988271, -0.11717909, 2.0282636
1566316765914, 11.799007, 10.39678, -5.223538, -1.9591261, 2.4723136, 1.4530207, -0.10759171, 1.9973708
1566316765921, 11.421368, 10.200389, -4.7469287, -1.9663111, 2.3925786, 1.3891048, -0.10546118, 1.9451729
1566316765924, 11.110591, 10.032737, -4.27032, -2.1339624, 2.3167958, 1.3198626, -0.099069595, 1.901497
1566316765932, 11.055688, 10.102193, -3.9326222, -2.1698878, 2.2149847, 1.2431636, -0.08628642, 1.8311896
1566316765934, 11.051712, 10.200389, -3.5877395, -2.2848487, 2.105918, 1.1526161, -0.043675844, 1.7619474
1566316765940, 10.89165, 10.090218, -3.3889527, -2.308799, 1.9726497, 1.0578076, 0.011717909, 1.6650083
1566316765943, 10.917281, 10.195599, -3.1135256, -2.3543043, 1.8426098, 0.9757822, 0.06498113, 1.5616777
1566316765951, 11.088315, 10.32972, -3.1231055, -2.548301, 1.7044035, 0.8671253, 0.17150758, 1.4572818
1566316765953, 11.06287, 10.33451, -2.9698243, -2.6009912, 1.5650508, 0.7669904, 0.27164245, 1.3369069
1566316765961, 11.104187, 10.336905, -3.0081446, -2.7207422, 1.443905, 0.6711166, 0.3930826, 1.216532
1566316765964, 11.092708, 10.403965, -2.926714, -2.4980054, 1.323044, 0.58056915, 0.51026165, 1.0737866
1566316765971, 10.945188, 10.281819, -2.8380983, -2.454895, 1.2383208, 0.49960902, 0.6317018, 0.9406285
1566316765974, 10.804405, 10.188414, -2.802173, -2.2537134, 1.191433, 0.4346279, 0.7456851, 0.8213189
1566316765982, 10.563916, 9.987232, -2.7566676, -2.0621119, 1.1573131, 0.37710363, 0.8383631, 0.7030745
1566316765984, 10.259307, 9.69504, -2.818938, -1.8202149, 1.1368103, 0.33662358, 0.91825795, 0.5795039
1566316765991, 9.919138, 9.381292, -2.8716285, -1.4609619, 1.1188747, 0.3110572, 0.96299905, 0.47723848
1566316765993, 9.728624, 9.16574, -2.9937747, -1.2933106, 1.1071522, 0.3110572, 0.9917612, 0.38136467
1566316766001, 9.435627, 8.828042, -3.0991554, -1.22146, 1.095011, 0.29827404, 1.0098706, 0.30040458
1566316766003, 9.269184, 8.626861, -3.2332766, -1.0202783, 1.0904775, 0.30999196, 1.0226538, 0.21731395
1566316766013, 8.961044, 8.298743, -3.2452517, -0.9484278, 1.0772884, 0.330232, 1.0130665, 0.1587244
1566316766015, 8.722726, 8.0017605, -3.3147073, -1.0346485, 1.0634803, 0.32597092, 1.0056096, 0.11611383
1566316766022, 8.458972, 7.6017923, -3.515889, -1.1855347, 1.03334, 0.33129725, 0.9757822, 0.07669904
1566316766024, 8.213615, 7.2808595, -3.5757644, -1.2909156, 0.98586005, 0.31957933, 0.9310411, 0.054328486
1566316766030, 7.987187, 6.976692, -3.6236646, -1.4106666, 0.9348592, 0.3110572, 0.8809737, 0.033023197
1566316766033, 7.891785, 6.813831, -3.671565, -1.5399976, 0.8551539, 0.27803403, 0.8085357, 0.015978966
1566316766041, 7.837958, 6.6533647, -3.7266505, -1.8106349, 0.7891762, 0.2514024, 0.74781567, 0.01917476
1566316766043, 7.801653, 6.5072684, -3.8535867, -1.9160157, 0.7204086, 0.20453078, 0.69029135, 0.025566347
1566316766051, 7.8280034, 6.4186525, -3.9757326, -2.066902, 0.6698794, 0.1470065, 0.6530071, 0.026631612
1566316766053, 7.872554, 6.2701616, -4.136199, -2.3566992, 0.6316255, 0.08735169, 0.624245, 0.040480047
1566316766061, 7.8901744, 6.2510014, -4.1793094, -2.3902297, 0.6110923, 0.011717909, 0.608266, 0.05752428
1566316766062, 7.9598956, 6.1743608, -4.3349857, -2.5387208, 0.60719985, -0.054328486, 0.5997439, 0.0777643
1566316766071, 8.033969, 6.1719656, -4.4619217, -2.5578809, 0.635721, -0.12676647, 0.6135923, 0.10759171
1566316766080, 7.866902, 5.949229, -4.524192, -2.454895, 0.67369366, -0.20026971, 0.62744075, 0.14168017
1566316766082, 7.9642544, 6.05461, -4.5481424, -2.4668703, 0.72038186, -0.26312032, 0.644485, 0.18535602
1566316766084, 7.991745, 6.023474, -4.734954, -2.2728736, 0.77827686, -0.31851408, 0.67324716, 0.22583607
1566316766096, 7.962747, 6.006709, -4.8044095, -2.059717, 0.8105521, -0.36325517, 0.67218184, 0.27057716
1566316766097, 8.1409235, 6.219866, -4.9313455, -1.8082398, 0.8359693, -0.3888215, 0.67537767, 0.30253512
1566316766103, 8.229472, 6.346802, -5.005591, -1.5447876, 0.8677245, -0.39840892, 0.6860303, 0.35153726
1566316766104, 8.229101, 6.4114676, -5.0199614, -1.1879297, 0.8751334, -0.39947417, 0.66579026, 0.40373522
1566316766115, 8.477722, 6.6844997, -5.1397123, -0.87897223, 0.87103266, -0.39627838, 0.6380934, 0.44101948
1566316766119, 8.77552, 6.9168167, -5.345684, -0.76880133, 0.85888594, -0.37923414, 0.60507023, 0.47723848
1566316766122, 9.102015, 7.1611085, -5.5803957, -0.6514453, 0.86378235, -0.3749731, 0.5837649, 0.51452273
1566316766124, 9.491984, 7.4772515, -5.815108, -0.61073, 0.84102815, -0.34194988, 0.5368933, 0.5496765
1566316766135, 9.895061, 7.7718387, -6.10251, -0.51971924, 0.8364199, -0.32277513, 0.5070659, 0.5816344
1566316766137, 10.369384, 8.111932, -6.4354177, -0.55324954, 0.8309015, -0.28442562, 0.47723848, 0.6178534
1566316766143, 10.726602, 8.341853, -6.71324, -0.63707525, 0.8280696, -0.26844665, 0.44528055, 0.644485
1566316766145, 11.150473, 8.696317, -6.950347, -0.6322852, 0.8384369, -0.24607609, 0.41971418, 0.6828345
1566316766154, 11.430641, 8.933423, -7.0916533, -0.7496411, 0.8455684, -0.2247708, 0.3898868, 0.71585774
1566316766157, 11.610944, 9.08431, -7.182664, -0.83586186, 0.8494948, -0.20772657, 0.3717773, 0.7350325
1566316766164, 11.832296, 9.280701, -7.29523, -0.80712163, 0.8612806, -0.18429075, 0.350472, 0.76485986
1566316766166, 11.993037, 9.462723, -7.31439, -0.8885523, 0.88189036, -0.17044231, 0.3270362, 0.80107886
1566316766173, 12.084163, 9.570498, -7.3311553, -0.8286768, 0.88042676, -0.15978967, 0.28336033, 0.8181231
1566316766175, 12.252474, 9.802815, -7.302415, -0.8382569, 0.88302004, -0.13528858, 0.24927188, 0.8362326
1566316766184, 12.318713, 10.035132, -7.1060233, -0.7424561, 0.8805737, -0.10865697, 0.20240025, 0.850081
1566316766195, 12.377136, 10.197993, -6.991062, -0.56522465, 0.8704991, -0.08628642, 0.14913702, 0.85327685
1566316766197, 12.549464, 10.435101, -6.950347, -0.5388794, 0.88168705, -0.070307456, 0.096939065, 0.87351686
1566316766200, 12.7305975, 10.684182, -6.9024467, -0.5221143, 0.857342, -0.04474111, 0.036218993, 0.85540736
1566316766202, 12.708214, 10.823093, -6.6509695, -0.3520679, 0.82165116, -0.015978966, -0.017044231, 0.8213189
1566316766204, 12.8136, 11.098521, -6.3947024, -0.34488282, 0.80304974, 0.008522116, -0.09054748, 0.7978831
