TimeStamp(epoch),mAccelerometerMagnitude(m/s^2),mAccelerometerX(m/s^2),mAccelerometerY(m/s^2),mAccelerometerZ(m/s^2),mGyroscopeMagnitude(rad/s),mGyroscopeX(rad/s),mGyroscopeY(rad/s),mGyroscopeZ(rad/s) 
1566315739768, 3.0781417, 1.7938697, 0.71371585, 2.3974147, 3.1393828, 1.139833, -2.9220204, 0.13528858
1566315739768, 2.8753135, 2.7638526, 0.009580079, 0.7927515, 3.4102118, 1.1302456, -3.2149682, 0.12676647
1566315739775, 2.0702364, 1.9950514, -0.11256592, 0.5412744, 3.6985292, 1.1217234, -3.520699, 0.15978967
1566315739775, 1.5725743, 1.4825171, -0.27303225, 0.44786867, 3.9843729, 1.0812434, -3.8296256, 0.20026971
1566315739787, 1.7707733, 1.6334034, -0.52690434, -0.43589357, 4.3139005, 0.9864349, -4.192881, 0.23755397
1566315739787, 2.3063753, 1.9136207, -0.72569096, -1.0633887, 4.513695, 0.88843054, -4.4165864, 0.2790993
1566315739798, 2.4191608, 0.91729254, -0.63707525, -2.1459377, 4.6659307, 0.773382, -4.587029, 0.36325517
1566315739798, 2.8447318, -0.42152345, -0.5125342, -2.7662477, 4.778787, 0.63702816, -4.7074037, 0.5209143
1566315739807, 3.506663, -2.0549269, -0.33769777, -2.8213332, 4.9317093, 0.49641323, -4.8480186, 0.75633776
1566315739807, 3.9731362, -2.7183473, -0.28500733, -2.8836036, 5.1235623, 0.3153183, -5.012069, 1.015197
1566315739818, 3.6221273, -2.5842261, -0.6442603, -2.454895, 5.312073, 0.18429075, -5.1505537, 1.2868395
1566315739818, 4.14935, -2.3590944, -1.3220508, -3.1470559, 5.493643, 0.06391586, -5.274124, 1.5361114
1566315739828, 3.8420804, -1.6334034, -2.078877, -2.787803, 5.709906, -0.049002163, -5.429653, 1.7662084
1566315739828, 3.7951941, -0.98914313, -2.8907888, -2.2513185, 5.9062696, -0.13528858, -5.55855, 1.9920446
1566315739838, 4.505228, -0.3281177, -3.5685792, -2.7303224, 6.1352763, -0.20559604, -5.7236657, 2.1997712
1566315739838, 4.2160683, 0.07185059, -4.0859036, -1.0370435, 6.3643165, -0.2428803, -5.88026, 2.4224114
1566315739848, 5.0577216, 0.39278322, -4.6583133, -1.9303858, 6.7402444, -0.23755397, -6.18173, 2.6759443
1566315739848, 6.364243, -0.4023633, -5.158872, 3.7050953, 7.1853585, -0.13741912, -6.5258102, 3.0040457
1566315739858, 5.3320055, 0.21076173, -5.3241286, -0.19878663, 7.47103, -0.1949434, -6.715427, 3.2682314
1566315739859, 5.804667, 1.1903248, -5.5468655, -1.2286451, 7.6823297, -0.32170987, -6.834737, 3.4930022
1566315739868, 6.595208, 2.0213966, -5.8917484, -2.1674929, 7.829714, -0.46978164, -6.8741517, 3.7188382
1566315739869, 7.4172544, 2.7830129, -6.241421, -2.8836036, 7.949351, -0.6125271, -6.8943915, 3.9095206
1566315739879, 7.852067, 3.6188745, -6.662945, -2.0405567, 7.9999948, -0.79255676, -6.840063, 4.072506
1566315739879, 9.139417, 4.402046, -7.3000197, -3.295547, 8.134343, -0.9768475, -6.8624334, 4.256797
1566315739889, 9.446969, 5.1564775, -7.7526784, -1.5974782, 8.2130785, -1.1366372, -6.8208885, 4.4315
1566315739889, 10.512194, 5.8270826, -8.222102, -2.9913795, 8.271551, -1.3496901, -6.7335367, 4.6104646
1566315739899, 11.09769, 6.8976564, -8.452024, -2.0357666, 8.269074, -1.5393071, -6.5843997, 4.7596016
1566315739899, 12.147912, 8.013736, -8.811277, -2.3902297, 8.194963, -1.7491642, -6.3543024, 4.870389
1566315739909, 13.355746, 9.457932, -9.182506, -2.1459377, 8.100101, -1.9345202, -6.1039653, 4.9609365
1566315739909, 14.528493, 10.870995, -9.611214, -0.7232959, 7.9540887, -2.1145499, -5.813148, 5.0003514
1566315739918, 15.727591, 12.16191, -9.968072, -0.28740236, 7.8163705, -2.2530344, -5.559615, 5.011004
1566315739919, 16.758799, 13.155843, -10.360855, 0.6586304, 7.6841493, -2.352104, -5.3114085, 5.0301785
1566315739929, 17.640467, 13.802498, -10.835069, 1.8106349, 7.5394745, -2.4234767, -5.0493536, 5.047223
1566315739929, 18.553188, 14.499449, -11.242222, 2.7566676, 7.3850965, -2.453304, -4.770254, 5.075985
1566315739939, 19.464212, 15.280225, -11.467354, 3.7242556, 7.1891356, -2.4469125, -4.4655886, 5.0749197
1566315739939, 20.023436, 15.85982, -11.55597, 3.9829175, 6.9583206, -2.4383903, -4.1097903, 5.0578756
1566315739950, 20.705599, 16.540005, -11.749967, 4.133804, 6.6931357, -2.417085, -3.7209687, 5.011004
1566315739950, 21.172035, 16.892073, -12.034974, 4.2511597, 6.4316244, -2.3840618, -3.303385, 4.9769154
1566315739959, 21.304152, 16.868124, -12.288846, 4.2799, 6.2041554, -2.3712788, -2.9028456, 4.9438925
1566315739960, 21.06881, 16.427439, -12.542718, 4.0882983, 6.0388875, -2.385127, -2.525742, 4.9396315
1566315739970, 20.534653, 15.749649, -12.583433, 3.908672, 5.961883, -2.3883228, -2.2327943, 4.985438
1566315739970, 20.074831, 15.112574, -12.552298, 4.129014, 5.9482455, -2.389388, -2.0090888, 5.063202
1566315739980, 19.66758, 14.6192, -12.502003, 4.0978785, 5.9803476, -2.3776703, -1.8695391, 5.1590757
1566315739980, 19.53602, 14.372513, -12.449312, 4.4834766, 6.0175962, -2.328668, -1.8034927, 5.247493
1566315739990, 19.629635, 14.319822, -12.502003, 4.89542, 6.0709534, -2.2540996, -1.8269285, 5.332714
1566315739990, 19.990818, 14.525794, -12.607384, 5.4486694, 6.129076, -2.1315942, -1.9121497, 5.419
1566315739998, 20.41798, 14.887442, -12.73432, 5.752837, 6.185331, -1.9835224, -2.0271983, 5.4967647
1566315739999, 20.708685, 15.251485, -12.679234, 5.9564137, 6.2184114, -1.7992316, -2.1209416, 5.5617456
1566315740010, 21.067932, 15.625108, -12.664864, 6.2701616, 6.2270727, -1.5925703, -2.2061627, 5.6011605
1566315740011, 21.447744, 16.123272, -12.569063, 6.485713, 6.2440324, -1.361408, -2.3371902, 5.6277924
1566315740020, 22.118063, 16.563955, -12.20981, 8.109536, 6.1900764, -1.1249193, -2.3425164, 5.6182046
1566315740021, 21.925217, 17.280067, -12.240946, 5.6809864, 6.145288, -0.922519, -2.356365, 5.6000953
1566315740030, 22.621994, 17.864452, -12.044554, 6.8952613, 6.052628, -0.6956177, -2.320146, 5.546832
1566315740031, 22.445683, 18.075212, -11.994258, 5.7648125, 5.971143, -0.5049353, -2.279666, 5.4956994
1566315740041, 22.574394, 18.391356, -11.60866, 6.0498195, 5.874952, -0.2908172, -2.240251, 5.423261
1566315740041, 22.629534, 18.626068, -11.395503, 5.942044, 5.7568865, -0.14168017, -2.1720743, 5.329518
1566315740050, 22.304852, 18.860779, -11.105706, 4.29427, 5.6238785, -0.00958738, -2.0879183, 5.221926
1566315740051, 22.197563, 18.944605, -10.4638405, 4.9337406, 5.450633, 0.08628642, -1.9398465, 5.0930295
1566315740061, 21.588663, 18.915865, -10.080638, 2.5770411, 5.2600765, 0.112918034, -1.8130801, 4.9364357
1566315740061, 21.498724, 18.90868, -9.592053, 3.5566041, 5.063665, 0.13422333, -1.6660736, 4.7798414
1566315740071, 20.925247, 18.71708, -9.19448, 1.7315992, 4.877337, 0.09161274, -1.5382419, 4.6275086
1566315740071, 20.68224, 18.609303, -8.794512, 2.0261867, 4.6688123, 0.0628506, -1.4157364, 4.4485445
1566315740081, 20.239737, 18.357826, -8.356223, 1.6765138, 4.472859, -0.0031957934, -1.2879047, 4.283428
1566315740081, 19.9307, 18.242865, -7.9778104, 0.8861573, 4.260815, -0.058589544, -1.176052, 4.094877
1566315740090, 19.800129, 18.156643, -7.5970025, 2.1603076, 4.0215387, -0.11611383, -1.0162623, 3.8892806
1566315740091, 19.578287, 18.123114, -7.3886356, 0.51971924, 3.7972884, -0.17150758, -0.8926916, 3.6868804
1566315740101, 19.792524, 18.31232, -7.1132083, 2.4093897, 3.5237951, -0.1768339, -0.72437984, 3.444
1566315740101, 19.790129, 18.44165, -7.060518, 1.3052857, 3.2407413, -0.18535602, -0.5858955, 3.1819448
1566315740111, 19.973776, 18.561401, -6.806646, 2.8452833, 2.9308338, -0.14274544, -0.4314321, 2.8953888
1566315740112, 19.892296, 18.594933, -6.543194, 2.668052, 2.6028657, -0.09161274, -0.314253, 2.582201
1566315740121, 19.85286, 18.518291, -6.318062, 3.3602126, 2.2608845, -0.00958738, -0.21198763, 2.2509038
1566315740121, 19.46353, 18.113533, -6.1528053, 3.5877395, 1.9299564, 0.060720075, -0.16724652, 1.9217371
1566315740131, 19.653143, 18.175804, -6.7898808, 3.1278956, 1.6182451, 0.12463594, -0.13848437, 1.6074841
1566315740132, 19.032328, 17.70638, -6.212681, 3.180586, 1.3192934, 0.22583607, -0.0777643, 1.2974921
1566315740141, 18.031616, 16.671732, -5.5732107, 4.016448, 1.1104767, 0.38136467, 0.00958738, 1.0428939
1566315740141, 16.703335, 15.332915, -5.206773, 4.0978785, 0.9707803, 0.5049353, 0.08735169, 0.8245147
1566315740151, 15.7671795, 14.559324, -5.2762284, 2.9650342, 0.90034574, 0.5837649, 0.16298546, 0.66579026
1566315740152, 15.187545, 13.919854, -5.7983427, 1.8106349, 0.8369352, 0.6135923, 0.21944448, 0.5251754
1566315740162, 14.748236, 13.251643, -6.2869267, 1.5423926, 0.7985974, 0.6327671, 0.2695119, 0.40586576
1566315740162, 14.613346, 12.947476, -6.67971, 1.1376343, 0.76119465, 0.6295713, 0.30360037, 0.30146983
1566315740172, 14.453287, 12.755875, -6.7755103, 0.52690434, 0.74028826, 0.6135923, 0.35579833, 0.21198763
1566315740173, 13.933093, 12.19065, -6.7467704, -0.014370117, 0.7156659, 0.56885123, 0.40586576, 0.15446335
1566315740182, 13.2854395, 11.479329, -6.6773148, -0.37601808, 0.7007481, 0.5273059, 0.44315, 0.128897
1566315740182, 12.559508, 10.557246, -6.7611403, -0.7568262, 0.7077855, 0.4857606, 0.49428272, 0.1438107
1566315740193, 11.953354, 9.845925, -6.6988697, -1.0322535, 0.68404, 0.40586576, 0.51771855, 0.18748654
1566315740193, 11.447196, 9.060359, -6.8425713, -1.4585669, 0.6303936, 0.2908172, 0.50173956, 0.24714136
1566315740202, 12.58846, 9.457932, -7.817344, -2.811753, 0.61545926, 0.13315806, 0.5134575, 0.3121225
1566315740202, 11.537321, 8.729847, -7.0988383, -2.550696, 0.6974521, 0.05219796, 0.5773733, 0.38775626
1566315740212, 9.808357, 7.438931, -6.2893214, -1.1448194, 0.82162833, 0.035153728, 0.63702816, 0.51771855
1566315740213, 9.060907, 6.7850904, -5.961204, -0.72569096, 0.9435159, -0.0031957934, 0.6466155, 0.6870956
1566315740222, 8.961309, 6.8737063, -5.7001467, -0.75203615, 1.0560946, -0.099069595, 0.65513766, 0.8223842
1566315740223, 9.677504, 7.0245924, -6.1384354, -2.574646, 1.1379309, -0.19068234, 0.6178534, 0.93636745
1566315740232, 9.765157, 7.2832546, -6.4905033, -0.43110353, 1.2061508, -0.22796659, 0.60293967, 1.019458
1566315740233, 10.322048, 7.647298, -6.7228203, -1.6932789, 1.2253269, -0.27164245, 0.5411543, 1.0652645
1566315740242, 10.511684, 8.293953, -6.449788, 0.32572266, 1.2477307, -0.28442562, 0.53263223, 1.091896
1566315740243, 10.479065, 8.370594, -6.2653713, -0.6993457, 1.267901, -0.30040458, 0.5113269, 1.1206582
1566315740253, 10.418903, 8.52627, -5.9875493, 0.07424561, 1.2766424, -0.27696875, 0.50387007, 1.139833
1566315740253, 10.099298, 8.334668, -5.6714063, 0.60354495, 1.3004645, -0.26844665, 0.49854377, 1.1707256
1566315740263, 10.189725, 8.435259, -5.712122, -0.2203418, 1.2809565, -0.26418558, 0.47723848, 1.1590078
1566315740263, 10.359859, 8.62207, -5.606741, 1.2454102, 1.2831082, -0.23116238, 0.49215218, 1.1622036
1566315740273, 10.4843, 8.804092, -5.6833816, -0.3281177, 1.2679874, -0.22050974, 0.47510794, 1.1547467
1566315740274, 10.805046, 9.19927, -5.47741, 1.456172, 1.2444578, -0.16085494, 0.5049353, 1.1259845
1566315740283, 10.729992, 9.168135, -5.5732107, 0.13172609, 1.2375559, -0.13954964, 0.53795856, 1.1057445
1566315740284, 11.009057, 9.491463, -5.5061502, 0.8909473, 1.2218267, -0.10333065, 0.5816344, 1.0695255
1566315740293, 10.941137, 9.445957, -5.49657, 0.51971924, 1.2346168, -0.08628642, 0.65513766, 1.0428939
1566315740294, 10.918901, 9.448353, -5.47262, -0.038320314, 1.241508, -0.07456851, 0.7030745, 1.0205233
1566315740304, 10.709266, 9.239985, -5.336104, 0.9148975, 1.2786058, -0.06924219, 0.7797736, 1.010936
1566315740304, 10.777031, 9.273516, -5.4606447, -0.5724097, 1.2721671, -0.06391586, 0.7765778, 1.0056096
1566315740314, 10.693235, 9.242381, -5.2594633, 1.1232642, 1.292805, -0.0479369, 0.8266452, 0.99282646
1566315740314, 10.602872, 9.1849, -5.295388, 0.13172609, 1.2875998, -0.051132694, 0.83729786, 0.9768475
1566315740324, 10.566106, 9.15137, -5.2810183, 0.07664063, 1.3039733, -0.036218993, 0.85327685, 0.9853696
1566315740324, 10.692676, 9.268726, -5.3313136, 0.033530276, 1.2726741, -0.035153728, 0.8362326, 0.958738
1566315740335, 10.837894, 9.455538, -5.295388, 0.10777588, 1.2450664, -0.036218993, 0.82344943, 0.9331717
1566315740335, 10.812126, 9.491463, -5.1732426, 0.22752686, 1.2103707, -0.024501082, 0.8064052, 0.902279
1566315740345, 11.011253, 9.733359, -5.142107, 0.26105714, 1.1727328, -0.017044231, 0.77870834, 0.8767126
1566315740345, 11.068662, 9.843531, -5.0487013, 0.36164796, 1.118305, -0.0063915867, 0.753142, 0.8266452
1566315740354, 11.221023, 10.030342, -5.012776, 0.41912845, 1.0623982, 0.0010652645, 0.716923, 0.7840346
1566315740355, 11.313122, 10.114168, -5.0606766, 0.28261232, 1.013407, 0.004261058, 0.69987875, 0.73290193
1566315740361, 11.31278, 10.154883, -4.9792457, 0.25387207, 0.963518, 0.008522116, 0.67324716, 0.6892261
1566315740362, 11.534595, 10.37283, -5.039121, 0.24189699, 0.9183451, 0.0127831735, 0.65513766, 0.64341974
1566315740371, 11.49453, 10.360855, -4.976851, 0.08861572, 0.86937654, 0.0063915867, 0.6412892, 0.58696073
1566315740372, 11.677497, 10.538086, -5.0271463, 0.20118165, 0.8104373, -0.0031957934, 0.6135923, 0.5294364
1566315740381, 11.766503, 10.688972, -4.912185, 0.25866213, 0.7571828, 0.0053263223, 0.5954828, 0.4676511
1566315740382, 11.87594, 10.7799835, -4.976851, 0.24668702, 0.7019527, 0.007456851, 0.57417756, 0.40373522
1566315740391, 11.943905, 10.839859, -4.996011, 0.4406836, 0.63595665, 0.026631612, 0.5368933, 0.33981937
1566315740394, 11.915317, 10.839859, -4.9169755, 0.54366946, 0.5694264, 0.041545313, 0.5049353, 0.25992453
1566315740404, 11.964601, 10.890154, -4.9002104, 0.7376661, 0.48301142, 0.06711166, 0.44528055, 0.17470337
1566315740404, 12.045405, 10.995535, -4.8451247, 0.84544194, 0.41548458, 0.094808534, 0.39521313, 0.08628642
1566315740415, 12.134995, 11.067386, -4.8594947, 1.0753639, 0.36458978, 0.13209279, 0.33981937, 0.0
1566315740415, 12.228588, 11.079361, -4.7972245, 1.9423609, 0.36472046, 0.18855181, 0.29188246, -0.1107875
1566315740425, 11.972868, 10.856624, -4.90979, 1.1735597, 0.38043368, 0.23116238, 0.22903186, -0.19707392
1566315740425, 12.036869, 10.882969, -4.9385304, 1.4346168, 0.44552642, 0.29614353, 0.16192019, -0.2908172
1566315740435, 11.987758, 10.727293, -4.9385304, 2.059717, 0.52295697, 0.34940675, 0.0958738, -0.37710363
1566315740436, 11.719966, 10.521321, -5.079837, 0.9244776, 0.60953605, 0.406931, 0.002130529, -0.45380265
1566315740443, 11.916781, 10.492581, -5.0199614, 2.5914114, 0.7255077, 0.4889564, -0.036218993, -0.53476274
1566315740444, 11.575509, 10.30577, -5.2019825, 0.85023195, 0.82276696, 0.54648066, -0.11611383, -0.6040049
1566315740455, 11.881739, 10.38241, -5.1900077, 2.5387208, 0.9296805, 0.6263755, -0.165116, -0.6668556
1566315740456, 11.455544, 10.063872, -5.3049684, 1.343606, 1.0106087, 0.6775082, -0.23329292, -0.7126619
1566315740465, 11.580138, 10.097403, -5.3049684, 1.9998415, 1.1307646, 0.7616641, -0.28655612, -0.7850999
1566315740466, 11.495095, 9.922566, -5.4822, 1.9040406, 1.2179686, 0.8159926, -0.3334278, -0.8404937
1566315740475, 11.39849, 9.960887, -5.4438796, 1.0346485, 1.3030331, 0.87032104, -0.38136467, -0.89162636
1566315740476, 11.534832, 9.980047, -5.350474, 2.196233, 1.3731787, 0.90654004, -0.38562572, -0.95660746
1566315740484, 11.302329, 9.81958, -5.589976, 0.26584718, 1.4200015, 0.9150622, -0.41225734, -1.0045444
1566315740484, 11.359931, 9.783655, -5.5420756, 1.6166383, 1.4700255, 0.92784536, -0.39521313, -1.0695255
1566315740496, 11.21546, 9.6686945, -5.6833816, -0.045505375, 1.4929771, 0.90654004, -0.3920173, -1.1195929
1566315740496, 11.397837, 9.841136, -5.7073317, 0.6993457, 1.5216305, 0.9012137, -0.36751625, -1.1696603
1566315740505, 11.244516, 9.616004, -5.8270826, 0.12933107, 1.5421152, 0.86499476, -0.32490566, -1.2346416
1566315740506, 11.466911, 9.843531, -5.872588, -0.3281177, 1.5575681, 0.83516735, -0.29827404, -1.2804478
1566315740516, 11.433005, 9.72378, -5.9947343, 0.4742139, 1.5767375, 0.8000136, -0.24820662, -1.3358417
1566315740517, 11.522965, 9.78605, -6.0833497, 0.06945557, 1.593354, 0.773382, -0.19387813, -1.3795174
1566315740526, 11.628508, 9.74773, -6.339617, 0.11496094, 1.616474, 0.74035877, -0.1555286, -1.4285196
1566315740527, 11.601783, 9.730965, -6.3156667, 0.14849122, 1.649282, 0.72651035, -0.12463594, -1.4753913
1566315740537, 11.72763, 9.766891, -6.488108, 0.22273682, 1.6835072, 0.70840085, -0.09267801, -1.5243934
1566315740537, 11.812916, 9.78605, -6.6030693, 0.42152345, 1.73034, 0.7094661, -0.07137272, -1.5765914
1566315740546, 11.842378, 9.78605, -6.6461797, 0.5508545, 1.7649635, 0.7126619, -0.051132694, -1.6138756
1566315740547, 11.827131, 9.6615095, -6.7898808, 0.6586304, 1.8097317, 0.716923, -0.05539375, -1.6607473
1566315740553, 11.87014, 9.659114, -6.8593364, 0.7424561, 1.8565958, 0.7350325, -0.07243799, -1.7033578
1566315740554, 12.013088, 9.692644, -7.0221977, 1.0274634, 1.9160696, 0.75633776, -0.099069595, -1.7576864
1566315740564, 11.915694, 9.613608, -6.9790874, 0.9244776, 1.9571416, 0.77125144, -0.14594123, -1.7928401
1566315740564, 11.988296, 9.625584, -7.079678, 0.97237796, 2.0003357, 0.777643, -0.18855181, -1.8333201
1566315740573, 11.943141, 9.520203, -7.1611085, 0.85023195, 2.0358496, 0.76912093, -0.24074976, -1.8695391
1566315740573, 11.879572, 9.453142, -7.1539235, 0.76401126, 2.069908, 0.76272935, -0.29507825, -1.901497
1566315740584, 11.807423, 9.354947, -7.185059, 0.5245093, 2.0944283, 0.74248934, -0.34301516, -1.9281287
1566315740585, 11.834098, 9.3381815, -7.2640944, 0.2778223, 2.1267996, 0.7094661, -0.38562572, -1.9675435
1566315740593, 11.832976, 9.244776, -7.3838453, 0.17962648, 2.1468086, 0.66365975, -0.42290998, -1.9973708
1566315740594, 11.7521, 9.14658, -7.3790555, 0.038320314, 2.1554859, 0.6178534, -0.45912898, -2.0133498
1566315740604, 11.875083, 9.168135, -7.5467067, -0.100590825, 2.1571784, 0.5496765, -0.47830373, -2.030394
1566315740604, 11.894817, 9.158555, -7.5874224, -0.19639161, 2.1627035, 0.4889564, -0.5091964, -2.0442424
1566315740614, 11.873793, 9.0891, -7.6377177, -0.20118165, 2.1612253, 0.41971418, -0.5422196, -2.049569
1566315740614, 11.780811, 8.959768, -7.647298, -0.17004639, 2.1757877, 0.36218992, -0.56459016, -2.0698087
1566315740624, 11.804477, 8.926238, -7.7239385, -0.09340577, 2.173901, 0.2876214, -0.5954828, -2.0708742
1566315740624, 11.802125, 8.902288, -7.7478886, -0.098195806, 2.18252, 0.22370553, -0.6380934, -2.0751352
1566315740634, 11.981605, 8.962164, -7.951465, 0.11256592, 2.1919203, 0.17896444, -0.6530071, -2.0847225
1566315740634, 12.029443, 8.938213, -8.047266, 0.23950197, 2.1879508, 0.12144015, -0.6924219, -2.0719395
1566315740644, 11.978642, 8.904683, -8.006551, 0.29937744, 2.1891465, 0.082025364, -0.6924219, -2.0751352
1566315740644, 12.080342, 8.952583, -8.102351, 0.37122804, 2.1754665, 0.037284255, -0.6849651, -2.0644825
1566315740654, 12.16043, 8.914263, -8.262817, 0.37122804, 2.1553426, -0.008522116, -0.6668556, -2.049569
1566315740654, 12.0969715, 8.818462, -8.267608, 0.46702883, 2.1326513, -0.0479369, -0.6199839, -2.0399814
1566315740664, 12.159633, 8.770562, -8.411309, 0.42870852, 2.106787, -0.09161274, -0.59228706, -2.0197413
1566315740665, 12.249705, 8.768167, -8.547825, 0.3305127, 2.0821776, -0.1470065, -0.53476274, -2.0069582
1566315740674, 12.278772, 8.701106, -8.655601, 0.37362307, 2.046271, -0.20559604, -0.49002165, -1.9760655
1566315740675, 12.361627, 8.679551, -8.796907, 0.29937744, 2.0207944, -0.25353295, -0.4261058, -1.9590213
1566315740684, 12.432939, 8.727451, -8.851993, 0.22752686, 2.009165, -0.2972088, -0.37390783, -1.9515644
1566315740685, 12.47398, 8.641231, -8.988508, 0.36883304, 1.9633992, -0.34940675, -0.330232, -1.9036276
1566315740694, 12.330852, 8.57417, -8.849598, 0.46702883, 1.9563228, -0.40906155, -0.2908172, -1.8908445
1566315740695, 12.367285, 8.5430355, -8.928633, 0.49576905, 1.9255708, -0.43675843, -0.24820662, -1.8588865
1566315740705, 12.291552, 8.4376545, -8.919053, 0.58198977, 1.8936993, -0.4676511, -0.2034655, -1.8237327
1566315740707, 12.398919, 8.499925, -9.0004835, 0.68976563, 1.865848, -0.49747851, -0.165116, -1.7907095
1566315740715, 12.320832, 8.384964, -8.995694, 0.7568262, 1.8462311, -0.5219796, -0.128897, -1.7662084
1566315740716, 12.273484, 8.301138, -8.988508, 0.96758795, 1.8003294, -0.5273059, -0.10333065, -1.7182716
1566315740725, 12.38251, 8.305928, -9.13221, 0.9699829, 1.7881758, -0.535828, -0.07350325, -1.7044232
1566315740725, 12.50877, 8.387359, -9.2328005, 0.9364527, 1.7561249, -0.5336975, -0.04474111, -1.6724652
1566315740735, 12.639911, 8.435259, -9.362132, 0.98195803, 1.7365218, -0.5336975, -0.02876214, -1.6522251
1566315740735, 12.681633, 8.313113, -9.522598, 1.0178833, 1.7036167, -0.5294364, 0.013848438, -1.619202
1566315740745, 12.757939, 8.262817, -9.685459, 0.8262818, 1.6644142, -0.52837116, 0.04580637, -1.5776566
1566315740746, 12.55682, 7.9682302, -9.6758795, 0.74724615, 1.6273699, -0.5305017, 0.08522116, -1.5361114
1566315740755, 12.350372, 7.7598634, -9.584868, 0.6682105, 1.5833163, -0.5336975, 0.11717909, -1.4860439
1566315740756, 11.974069, 7.398216, -9.381292, 0.79754156, 1.5224894, -0.5336975, 0.14061491, -1.4189322
1566315740766, 11.691271, 7.1132083, -9.249566, 0.73048097, 1.4549364, -0.5251754, 0.14913702, -1.3486248
1566315740766, 11.297592, 6.825806, -8.969349, 0.7711963, 1.3890464, -0.5187838, 0.16192019, -1.2783173
1566315740776, 11.202285, 6.686895, -8.959768, 0.7065308, 1.342985, -0.5187838, 0.16085494, -1.2282499
1566315740776, 11.005782, 6.5000834, -8.837623, 0.87897223, 1.2698945, -0.5209143, 0.15020229, -1.1483551
1566315740785, 10.84715, 6.2725563, -8.823253, 0.6825806, 1.1922195, -0.52624065, 0.14487597, -1.0599382
1566315740786, 10.638352, 6.09772, -8.691526, 0.6706055, 1.1451633, -0.5411543, 0.14913702, -0.9981528
1566315740796, 10.56419, 6.0114994, -8.669971, 0.54366946, 1.0646688, -0.5411543, 0.16298546, -0.902279
1566315740797, 10.301719, 5.709727, -8.5502205, 0.6466553, 0.9955807, -0.5411543, 0.165116, -0.81918836
1566315740806, 10.083865, 5.5684204, -8.380174, 0.6706055, 0.9083483, -0.535828, 0.15978967, -0.71585774
1566315740807, 9.858639, 5.470225, -8.169412, 0.728086, 0.83906674, -0.52624065, 0.14594123, -0.63702816
1566315740817, 9.627482, 5.3121533, -7.9826, 0.8646021, 0.7889425, -0.5251754, 0.12037488, -0.5763081
1566315740817, 9.43081, 5.245093, -7.783814, 0.91729254, 0.7257094, -0.5230448, 0.099069595, -0.49321744
1566315740826, 9.313034, 5.230723, -7.654483, 0.88376224, 0.6683301, -0.51026165, 0.08628642, -0.42290998
1566315740828, 9.118418, 5.2355127, -7.4054008, 0.94603276, 0.6130678, -0.49534798, 0.083090626, -0.35153726
1566315740836, 8.889301, 5.0606766, -7.2425394, 0.977168, 0.57976323, -0.49534798, 0.07456851, -0.29188246
1566315740837, 8.809524, 5.1397123, -7.0916533, 0.9484278, 0.54159033, -0.48149952, 0.080960095, -0.23435818
1566315740846, 8.629837, 5.120552, -6.8856816, 0.91729254, 0.51977265, -0.47830373, 0.08841695, -0.18322548
1566315740847, 8.357455, 5.0415163, -6.586304, 1.0250684, 0.4825789, -0.45593318, 0.09161274, -0.128897
1566315740857, 8.222318, 5.012776, -6.4282327, 1.0753639, 0.4635431, -0.44208476, 0.0958738, -0.101200126
1566315740857, 8.230137, 5.0487013, -6.358777, 1.346001, 0.4183981, -0.40266997, 0.098004326, -0.05752428
1566315740867, 8.245408, 5.240303, -6.224656, 1.334026, 0.39041033, -0.37710363, 0.0958738, -0.03195793
1566315740868, 8.464703, 5.503755, -6.224656, 1.6166383, 0.32713506, -0.314253, 0.08948222, -0.015978966
1566315740877, 8.647274, 5.752837, -6.239026, 1.6597486, 0.28447747, -0.27164245, 0.082025364, -0.020240024
1566315740878, 8.864813, 6.0043144, -6.3012967, 1.6813037, 0.23566675, -0.2247708, 0.06924219, -0.014913702
1566315740888, 9.033442, 6.219866, -6.318062, 1.7315992, 0.17206576, -0.1587244, 0.06391586, -0.018109497
1566315740888, 9.195778, 6.361172, -6.437813, 1.6286134, 0.119062066, -0.10013486, 0.053263225, -0.036218993
1566315740898, 9.389844, 6.569539, -6.5264287, 1.5543678, 0.0771931, -0.041545313, 0.05006743, -0.041545313
1566315740898, 9.523559, 6.71803, -6.576724, 1.5208374, 0.06762542, 0.0053263223, 0.035153728, -0.05752428
1566315740909, 9.714299, 6.8593364, -6.7707205, 1.214275, 0.09396695, 0.05219796, 0.014913702, -0.07669904
1566315740910, 9.876236, 7.0078273, -6.8832865, 1.0250684, 0.1280579, 0.09054748, 0.0010652645, -0.09054748
1566315740922, 10.0142145, 7.117998, -7.0006423, 0.7807764, 0.15544468, 0.11930962, -0.010652645, -0.099069595
1566315740922, 10.164915, 7.158714, -7.192244, 0.59156984, 0.17546494, 0.13741912, -0.018109497, -0.10759171
1566315740930, 10.226843, 7.1227884, -7.32397, 0.4622388, 0.19097967, 0.14913702, -0.022370555, -0.11717909
1566315740931, 10.172687, 6.974297, -7.4054008, 0.05269043, 0.18657036, 0.13635385, -0.041545313, -0.12037488
1566315740938, 10.238807, 6.928792, -7.537127, -0.12933107, 0.1782019, 0.13635385, -0.05965481, -0.098004326
1566315740938, 10.152528, 6.840176, -7.4964113, -0.29937744, 0.15532053, 0.099069595, -0.07563378, -0.09267801
1566315740948, 10.020853, 6.6916847, -7.446116, -0.4406836, 0.12185527, 0.068176925, -0.07989483, -0.06178534
1566315740948, 9.875249, 6.4018874, -7.4916215, -0.64186525, 0.09616925, 0.037284255, -0.083090626, -0.03089267
1566315740958, 9.905423, 6.3635674, -7.534732, -0.92208254, 0.08434446, -0.008522116, -0.083090626, 0.011717909
1566315740958, 9.750625, 6.11688, -7.5323367, -0.96040285, 0.11935716, -0.06711166, -0.080960095, 0.056459017
1566315740972, 9.598345, 5.968389, -7.453301, -0.977168, 0.1758461, -0.11930962, -0.068176925, 0.10972224
1566315740973, 9.351358, 5.824688, -7.237749, -1.0657837, 0.2591725, -0.18322548, -0.06178534, 0.17257284
1566315740982, 9.067388, 5.5803957, -7.079678, -0.977168, 0.33733916, -0.24074976, -0.043675844, 0.23222765
1566315740983, 8.759353, 5.4438796, -6.806646, -0.87178713, 0.42372492, -0.3089267, -0.027696876, 0.28868666
1566315740992, 8.558188, 5.4127445, -6.581514, -0.7927515, 0.49162155, -0.36005938, -0.0127831735, 0.33449304
1566315740993, 8.175827, 5.1924024, -6.2845316, -0.6227051, 0.54947513, -0.39734364, 0.014913702, 0.37923414
1566315741002, 8.085544, 5.278623, -6.109695, -0.42870852, 0.6195051, -0.44101948, 0.036218993, 0.43356264
1566315741003, 7.860297, 5.1828227, -5.9013286, -0.31135255, 0.67192185, -0.48043427, 0.070307456, 0.4644553
1566315741012, 7.764541, 5.240303, -5.724097, -0.24908204, 0.720715, -0.5123922, 0.10226539, 0.49641323
1566315741013, 7.6774435, 5.249883, -5.601951, 0.0023950196, 0.75960606, -0.5336975, 0.14807177, 0.51984906
1566315741022, 7.529162, 5.240303, -5.4055595, 0.086220704, 0.7997618, -0.5486112, 0.19707392, 0.5475459
1566315741023, 7.4360037, 5.1468973, -5.364844, 0.14849122, 0.8493746, -0.56245965, 0.24607609, 0.58696073
1566315741029, 7.334765, 5.110972, -5.237908, 0.49097902, 0.87462425, -0.5635249, 0.2759035, 0.60933125
1566315741029, 7.287461, 5.127737, -5.149292, 0.5460645, 0.89699125, -0.55074173, 0.32597092, 0.628506
1566315741039, 7.1389413, 4.9792457, -5.0558863, 0.7807764, 0.9209783, -0.52837116, 0.35260254, 0.6668556
1566315741039, 7.081409, 4.9864306, -4.9481106, 0.8933423, 0.92325985, -0.4910869, 0.3749731, 0.6860303
1566315741049, 7.0251126, 4.9337406, -4.888235, 1.0562036, 0.93303424, -0.46552056, 0.3898868, 0.70840085
1566315741050, 7.0528016, 4.976851, -4.8499146, 1.2046949, 0.95136946, -0.4261058, 0.4111921, 0.74461985
1566315741059, 6.9927564, 4.905, -4.8331494, 1.2166699, 0.9708446, -0.3920173, 0.42717105, 0.77870834
1566315741059, 6.9047217, 4.84752, -4.8139896, 1.0011182, 0.98747027, -0.35579833, 0.4314321, 0.813862
1566315741072, 6.7383876, 4.7469287, -4.687053, 0.9508228, 1.0113019, -0.32384038, 0.4250405, 0.8586032
1566315741073, 6.7828116, 4.703819, -4.792434, 0.95561284, 1.049485, -0.30679616, 0.41225734, 0.9150622
1566315741087, 6.902002, 4.8139896, -4.8451247, 0.99393314, 1.0810723, -0.27803403, 0.39734364, 0.96619487
1566315741088, 7.0333333, 4.9169755, -4.912185, 1.0777588, 1.1093204, -0.221575, 0.38562572, 1.0162623
1566315741089, 7.0766377, 5.029541, -4.8091993, 1.2861255, 1.1413676, -0.16405073, 0.36005938, 1.0705907
1566315741090, 7.16092, 5.130132, -4.8139896, 1.336421, 1.164981, -0.10013486, 0.32490566, 1.1142666
1566315741106, 7.1425962, 5.230723, -4.6583133, 1.3986914, 1.2013402, -0.041545313, 0.29294774, 1.164334
1566315741107, 7.1639204, 5.252278, -4.687053, 1.3292359, 1.2344475, 0.011717909, 0.25885928, 1.2069446
1566315741110, 7.1456428, 5.3408937, -4.615203, 1.1112891, 1.2743583, 0.05752428, 0.22050974, 1.2538162
1566315741112, 7.2411923, 5.50136, -4.600833, 1.0011182, 1.3202319, 0.0958738, 0.19813919, 1.3017532
1566315741123, 7.333899, 5.6594315, -4.5936475, 0.8095166, 1.3599163, 0.111852765, 0.18002969, 1.3432984
1566315741123, 7.4270644, 5.7791824, -4.617598, 0.66342044, 1.3950727, 0.13528858, 0.15765914, 1.3795174
1566315741133, 7.7397447, 6.1216702, -4.7086086, 0.50774413, 1.4259503, 0.14594123, 0.14061491, 1.4114754
1566315741133, 7.8894343, 6.318062, -4.7086086, 0.39278322, 1.4434152, 0.14168017, 0.128897, 1.4306501
1566315741144, 8.168124, 6.588699, -4.82357, 0.20118165, 1.4512628, 0.14168017, 0.10865697, 1.4402375
1566315741146, 8.489335, 6.9862723, -4.8163843, 0.25147706, 1.453335, 0.14594123, 0.10226539, 1.442368
1566315741151, 8.626002, 7.2114043, -4.727769, 0.22752686, 1.4448042, 0.13741912, 0.098004326, 1.4349113
1566315741153, 8.743236, 7.316785, -4.782854, 0.1820215, 1.4423264, 0.1438107, 0.099069595, 1.4317155
1566315741162, 8.891748, 7.5083866, -4.761299, 0.13172609, 1.4235095, 0.12357068, 0.099069595, 1.4146712
1566315741163, 9.100829, 7.726333, -4.806804, 0.15328126, 1.4177917, 0.12463594, 0.10652645, 1.4082797
1566315741174, 9.215759, 7.8580594, -4.8139896, 0.081430666, 1.3983417, 0.111852765, 0.11504856, 1.3891048
1566315741175, 9.2714405, 7.94907, -4.7708793, 0.102985844, 1.3806555, 0.10013486, 0.13954964, 1.3699301
1566315741183, 9.397852, 8.032896, -4.873865, 0.1939966, 1.3726553, 0.10013486, 0.17150758, 1.3582122
1566315741185, 9.378913, 8.056846, -4.7948294, 0.24668702, 1.3675951, 0.07989483, 0.20559604, 1.3496901
1566315741192, 9.385792, 8.054451, -4.8139896, 0.21076173, 1.362003, 0.07243799, 0.23222765, 1.3401027
1566315741194, 9.310227, 8.023315, -4.718189, 0.21315674, 1.3674747, 0.056459017, 0.26631612, 1.3401027
1566315741202, 9.366275, 8.071217, -4.744534, 0.2682422, 1.3632259, 0.051132694, 0.2972088, 1.32945
1566315741204, 9.363977, 8.056846, -4.754114, 0.41194338, 1.3546289, 0.05006743, 0.30999196, 1.3177321
1566315741213, 9.424406, 8.135881, -4.734954, 0.45505372, 1.3514084, 0.05006743, 0.32277513, 1.3113406
1566315741214, 9.513473, 8.2125225, -4.768484, 0.5676197, 1.3457309, 0.056459017, 0.31957933, 1.3060142
1566315741225, 9.645109, 8.346643, -4.7876444, 0.66342044, 1.338564, 0.068176925, 0.31318775, 1.2996227
1566315741227, 9.905824, 8.57417, -4.8906302, 0.8310718, 1.3259393, 0.07350325, 0.3110572, 1.2868395
1566315741233, 10.004053, 8.617281, -5.017566, 0.8047266, 1.3217709, 0.08628642, 0.3206446, 1.2793826
1566315741235, 10.084372, 8.691526, -5.046306, 0.8286768, 1.3153899, 0.10333065, 0.3355583, 1.2676647
1566315741243, 10.284127, 8.828042, -5.2043777, 0.86220706, 1.3176848, 0.12676647, 0.34834146, 1.2644689
1566315741245, 10.47279, 8.986114, -5.3169436, 0.81191164, 1.3081036, 0.14061491, 0.3749731, 1.2452941
1566315741253, 10.660504, 9.15137, -5.4342995, 0.60594, 1.3063692, 0.15339808, 0.39840892, 1.2346416
1566315741254, 10.899328, 9.364527, -5.5612354, 0.4167334, 1.2952061, 0.1555286, 0.4463458, 1.2058793
1566315741263, 11.117269, 9.572893, -5.637876, 0.40954837, 1.2976744, 0.16405073, 0.4644553, 1.200553
1566315741264, 11.254077, 9.618399, -5.824688, 0.4622388, 1.2979863, 0.16405073, 0.47617322, 1.196292
1566315741273, 11.437445, 9.77168, -5.927674, 0.4382886, 1.3117009, 0.17150758, 0.48682585, 1.2058793
1566315741275, 11.519778, 9.841136, -5.9707837, 0.45505372, 1.3243538, 0.18216023, 0.49854377, 1.2133362
1566315741283, 11.740664, 10.061478, -6.0378447, 0.39278322, 1.332455, 0.18216023, 0.5070659, 1.2186625
1566315741284, 12.086605, 10.360855, -6.2031007, 0.51013917, 1.3162196, 0.18322548, 0.48682585, 1.2090752
1566315741297, 12.319239, 10.614727, -6.231841, 0.50534916, 1.2958021, 0.1949434, 0.47191215, 1.1909657
1566315741298, 12.587371, 10.8925495, -6.2893214, 0.488584, 1.2720997, 0.19600865, 0.4463458, 1.1749867
1566315741304, 12.746318, 11.038646, -6.361172, 0.3903882, 1.2604775, 0.20879184, 0.43249738, 1.1653993
1566315741306, 13.066526, 11.369158, -6.4138627, 0.58198977, 1.2317051, 0.2247708, 0.4293016, 1.1323761
1566315741317, 13.404911, 11.6876955, -6.5384035, 0.58198977, 1.2013364, 0.23116238, 0.42290998, 1.1004182
1566315741319, 13.49158, 11.845767, -6.4330225, 0.5628296, 1.1514902, 0.24927188, 0.41438788, 1.0450244
1566315741323, 13.730038, 12.159514, -6.334827, 0.728086, 1.0953307, 0.2514024, 0.406931, 0.9853696
1566315741329, 13.832751, 12.367882, -6.1743608, 0.50774413, 1.0324572, 0.24181503, 0.4101268, 0.91612744
1566315741335, 14.024992, 12.604988, -6.1384354, 0.366438, 0.9372427, 0.22050974, 0.39840892, 0.81918836
1566315741337, 14.244125, 12.894786, -6.0498195, 0.13891114, 0.8279463, 0.18322548, 0.3834952, 0.7105314
1566315741343, 14.457307, 13.115128, -6.0833497, -0.0023950196, 0.72032046, 0.14487597, 0.3834952, 0.59228706
1566315741347, 14.6997385, 13.299544, -6.2581863, -0.19878663, 0.62249917, 0.07563378, 0.38456047, 0.48363006
1566315741353, 14.850477, 13.428875, -6.334827, -0.2682422, 0.53141004, 0.01917476, 0.39521313, 0.35473305
1566315741354, 14.909866, 13.448035, -6.430628, -0.31853762, 0.49726173, -0.05006743, 0.42290998, 0.25672874
1566315741363, 14.891473, 13.366605, -6.557564, -0.29698244, 0.50599164, -0.10546118, 0.47510794, 0.13848437
1566315741365, 14.538449, 13.028907, -6.449788, -0.119750984, 0.5357179, -0.1470065, 0.5123922, 0.053263225
1566315741374, 14.261929, 12.81575, -6.255791, 0.15567628, 0.5808984, -0.18429075, 0.55074173, -0.0127831735
1566315741376, 13.898507, 12.410992, -6.2438164, 0.3879932, 0.6199665, -0.19813919, 0.58269966, -0.07456851
1566315741382, 13.613752, 12.092454, -6.212681, 0.71371585, 0.63045925, -0.19068234, 0.59122175, -0.10759171
1566315741385, 13.463851, 11.879297, -6.2581863, 0.9963282, 0.6313604, -0.17896444, 0.5901565, -0.13528858
1566315741393, 13.352207, 11.706856, -6.3084817, 1.1975098, 0.62180156, -0.14913702, 0.58269966, -0.15765914
1566315741393, 13.46618, 11.673326, -6.576724, 1.3483961, 0.60970086, -0.1107875, 0.57417756, -0.17257284
1566315741403, 13.466703, 11.651771, -6.6413894, 1.2166699, 0.6269342, -0.07669904, 0.59228706, -0.19068234
1566315741403, 13.516464, 11.678116, -6.72761, 1.0274634, 0.64964193, -0.051132694, 0.61891866, -0.19068234
1566315741414, 13.311312, 11.498489, -6.638994, 0.9484278, 0.67535836, -0.03089267, 0.64555025, -0.19600865
1566315741416, 13.13028, 11.354788, -6.550379, 0.75203615, 0.6948669, -0.027696876, 0.6679208, -0.18961707
1566315741424, 12.927315, 11.311678, -6.224656, 0.6442603, 0.72671497, -0.00958738, 0.6988135, -0.19920446
1566315741424, 12.710541, 11.235037, -5.9085135, 0.6490503, 0.7298803, -0.002130529, 0.700944, -0.2034655
1566315741434, 12.657655, 11.306888, -5.6498513, 0.6706055, 0.72441113, 0.010652645, 0.69029135, -0.21944448
1566315741435, 12.622041, 11.390714, -5.384004, 0.76161623, 0.69703954, 0.039414786, 0.64768076, -0.2545982
1566315741444, 12.728744, 11.50328, -5.376819, 0.8861573, 0.6654092, 0.068176925, 0.58483016, -0.30999196
1566315741444, 12.899716, 11.735597, -5.2666483, 0.9699829, 0.63789773, 0.09161274, 0.5070659, -0.37603834
1566315741454, 13.07289, 11.864927, -5.376819, 1.101709, 0.6286523, 0.12996227, 0.41864893, -0.45060685
1566315741455, 13.231744, 12.015814, -5.465435, 0.91010743, 0.6345847, 0.16618125, 0.30786142, -0.5294364
1566315741463, 13.488788, 12.166699, -5.702542, 1.1831397, 0.6672647, 0.2034655, 0.18748654, -0.60720074
1566315741464, 13.679391, 12.279265, -5.9324636, 1.0729688, 0.7483231, 0.23861924, 0.05219796, -0.7073356
1566315741475, 13.874339, 12.360697, -6.200706, 1.1232642, 0.84617275, 0.28122982, -0.084155895, -0.793622
1566315741476, 14.016917, 12.396622, -6.449788, 1.094524, 0.962448, 0.31638354, -0.22796659, -0.87990844
1566315741486, 14.004557, 12.260105, -6.662945, 1.1927198, 1.0780797, 0.36005938, -0.37923414, -0.94275904
1566315741489, 14.003005, 12.140354, -6.8808913, 1.1615845, 1.2016944, 0.40053943, -0.51984906, -1.0066749
1566315741495, 14.114264, 12.09485, -7.1635036, 1.2693604, 1.3257428, 0.43995422, -0.67218184, -1.0546118
1566315741496, 14.248327, 12.116405, -7.3766603, 1.3388159, 1.4570968, 0.4878911, -0.83516735, -1.0897655
1566315741506, 14.407029, 12.12838, -7.6257424, 1.5208374, 1.616133, 0.54435015, -1.0141318, -1.1345067
1566315741508, 14.6397085, 12.255316, -7.846084, 1.6022681, 1.7609982, 0.5954828, -1.1845741, -1.1590078
1566315741515, 14.755589, 12.25292, -8.047266, 1.6836988, 1.924402, 0.6540724, -1.3571469, -1.1973573
1566315741517, 15.0259, 12.4684725, -8.193362, 1.7842896, 2.0698135, 0.69348717, -1.5052186, -1.2399678
1566315741525, 15.01575, 12.379856, -8.308323, 1.7842896, 2.2278266, 0.7286409, -1.6703347, -1.2815131
1566315741526, 14.966853, 12.384646, -8.248447, 1.6094532, 2.3632696, 0.7499462, -1.7875137, -1.3518206
1566315741535, 15.005295, 12.427757, -8.277188, 1.4825171, 2.4831715, 0.76912093, -1.8919097, -1.4125407
1566315741536, 14.818984, 12.240946, -8.214917, 1.5088624, 2.6115913, 0.773382, -2.0026972, -1.4871092
1566315741547, 14.471665, 11.867322, -8.138277, 1.5376027, 2.7510378, 0.76912093, -2.1379857, -1.551025
1566315741548, 13.976248, 11.390714, -7.879615, 1.8705103, 2.901754, 0.7520767, -2.3009713, -1.6000272
1566315741555, 13.563855, 10.985955, -7.6329274, 2.2417383, 3.0547457, 0.7520767, -2.461826, -1.6447684
1566315741557, 13.094938, 10.605147, -7.2616997, 2.5051906, 3.159765, 0.753142, -2.569418, -1.6777915
1566315741566, 12.53289, 10.121353, -6.998247, 2.3782544, 3.20295, 0.77231675, -2.5853968, -1.7257284
1566315741568, 12.528288, 10.200389, -6.9144216, 2.2585034, 3.2547617, 0.79681784, -2.6013758, -1.7864485
1566315741576, 12.786058, 9.934542, -7.606582, 2.6321266, 3.4350388, 0.8404937, -2.7462518, -1.8844528
1566315741577, 13.092623, 9.70941, -7.9634404, 3.7050953, 3.6953213, 0.9171927, -2.9784794, -1.9856529
1566315741586, 13.311348, 9.386082, -7.9059596, 5.1564775, 3.9737859, 1.091896, -3.2075112, -2.0762005
1566315741587, 12.804237, 8.459209, -7.434141, 6.09293, 4.226021, 1.3060142, -3.4205642, -2.1102889
1566315741597, 11.584295, 7.0174074, -6.4354177, 6.598279, 4.4213343, 1.5030881, -3.6080508, -2.066613
1566315741598, 10.121466, 5.8342676, -5.1684523, 6.456973, 4.5086718, 1.6564863, -3.7199035, -1.9355855
1566315741606, 8.724454, 5.4223247, -4.157754, 5.4247193, 4.4883614, 1.7470337, -3.7156425, -1.8130801
1566315741607, 8.010347, 5.745652, -3.8152664, 4.0739284, 4.3676915, 1.7832527, -3.5952675, -1.7235979
1566315741616, 8.230396, 6.706055, -4.0859036, 2.4644752, 4.186835, 1.7385116, -3.4045851, -1.707619
1566315741618, 9.457014, 8.080796, -4.742139, 1.2837305, 3.976518, 1.6341157, -3.1776838, -1.7449032
1566315741626, 10.268326, 8.842413, -5.2187476, 0.122146, 3.7563026, 1.4796523, -2.9209552, -1.8407769
1566315741628, 10.501854, 9.15616, -5.127737, -0.39996827, 3.5102398, 1.3049489, -2.630138, -1.9238676
1566315741636, 10.1342945, 8.947793, -4.737349, -0.44547364, 3.2697444, 1.1195929, -2.3350596, -1.9963056
1566315741638, 9.6423435, 8.751402, -4.047583, -0.06945557, 3.019628, 0.9321064, -2.0293288, -2.0325246
1566315741652, 9.474009, 8.701106, -3.7314405, 0.3520679, 2.8005512, 0.77444726, -1.6916399, -2.0932446
1566315741653, 9.9077015, 9.110655, -3.8607717, 0.5029541, 2.6066377, 0.644485, -1.2996227, -2.1656826
1566315741656, 10.407487, 9.400452, -4.4523416, 0.3520679, 2.4697988, 0.5454154, -0.8522116, -2.2530344
1566315741658, 11.038174, 9.766891, -5.142107, -0.08861572, 2.420339, 0.44101948, -0.41971418, -2.3425164
1566315741667, 11.165981, 9.592053, -5.709727, -0.26584718, 2.4581118, 0.3536678, -0.051132694, -2.4319987
1566315741668, 10.931994, 9.101074, -6.05461, -0.14370118, 2.5381284, 0.28442562, 0.23861924, -2.5108283
1566315741677, 10.578158, 8.646021, -6.09293, 0.14130616, 2.5970635, 0.21944448, 0.44528055, -2.549178
1566315741679, 9.756731, 7.800579, -5.8342676, 0.55324954, 2.6470003, 0.21092236, 0.5816344, -2.573679
1566315741687, 9.0009775, 7.048543, -5.518125, 0.9412427, 2.644664, 0.19068234, 0.66579026, -2.5523736
1566315741688, 8.506337, 6.5168486, -5.319339, 1.2621753, 2.6188653, 0.18429075, 0.70627034, -2.5150893
1566315741701, 8.15269, 6.1887307, -5.1612673, 1.2358302, 2.594249, 0.17257284, 0.73822826, -2.481001
1566315741705, 8.063266, 6.0498195, -5.249883, 0.9244776, 2.5420873, 0.14061491, 0.72651035, -2.4319987
1566315741708, 8.212078, 6.1408305, -5.4199295, 0.5939649, 2.50454, 0.11930962, 0.7307714, -2.392584
1566315741711, 8.429325, 6.231841, -5.6642213, 0.366438, 2.4950917, 0.070307456, 0.753142, -2.3776703
1566315741718, 8.71643, 6.437813, -5.872588, 0.2083667, 2.4677167, 0.01917476, 0.7595336, -2.347843
1566315741719, 8.972041, 6.6342044, -6.0402393, 0.019160157, 2.4640186, -0.027696876, 0.78936094, -2.3339944
1566315741727, 9.174377, 6.7371902, -6.2270513, 0.05748047, 2.4656107, -0.0777643, 0.809601, -2.3276029
1566315741728, 9.287324, 6.7803006, -6.346802, 0.0023950196, 2.4666405, -0.13102753, 0.8330368, -2.3180156
1566315741737, 9.224588, 6.6413894, -6.4018874, 0.028740235, 2.4529421, -0.16618125, 0.83942837, -2.2988408
1566315741738, 9.408104, 6.69408, -6.6102543, 0.07903565, 2.4333744, -0.20559604, 0.81705785, -2.2828617
1566315741748, 9.239848, 6.5240335, -6.5407987, 0.17244141, 2.4264007, -0.2247708, 0.8000136, -2.279666
1566315741749, 9.300936, 6.4354177, -6.710845, 0.23950197, 2.4018438, -0.25033715, 0.76912093, -2.2615564
1566315741758, 9.110584, 6.2701616, -6.598279, 0.3879932, 2.3650625, -0.26525086, 0.716923, -2.2381206
1566315741760, 9.060319, 6.1528053, -6.6365995, 0.43349856, 2.3385456, -0.27696875, 0.6668556, -2.2242723
1566315741767, 8.9639635, 5.942044, -6.69408, 0.48379397, 2.2840517, -0.29188246, 0.6061355, -2.1827269
1566315741769, 8.72128, 5.6833816, -6.598279, 0.47181886, 2.2295985, -0.3121225, 0.56245965, -2.13479
1566315741780, 8.6948, 5.4534597, -6.7539554, 0.49337405, 2.151902, -0.3153183, 0.51026165, -2.066613
1566315741782, 8.5047455, 5.2043777, -6.70366, 0.55324954, 2.0947814, -0.34514567, 0.46871635, -2.0122845
1566315741788, 8.40362, 5.007986, -6.72761, 0.5292993, 2.0125172, -0.36112466, 0.4261058, -1.933455
1566315741790, 8.227493, 4.6654983, -6.7467704, 0.63707525, 1.9280033, -0.37923414, 0.386691, -1.8503643
1566315741798, 8.12792, 4.5744877, -6.6916847, 0.5987549, 1.8345516, -0.40373522, 0.3472762, -1.7555559
1566315741800, 8.015616, 4.394861, -6.67971, 0.5628296, 1.7513887, -0.4165184, 0.29933932, -1.6745957
1566315741810, 7.922153, 4.2439747, -6.6581545, 0.6466553, 1.6592247, -0.43995422, 0.25246766, -1.5797871
1566315741812, 7.855656, 4.136199, -6.6533647, 0.57959473, 1.5595977, -0.4676511, 0.20772657, -1.4732608
1566315741818, 7.781886, 3.9877076, -6.6581545, 0.57001466, 1.4915198, -0.5273059, 0.15126756, -1.3869743
1566315741820, 7.789459, 3.9685476, -6.68929, 0.4239185, 1.40162, -0.5550028, 0.11930962, -1.2815131
1566315741830, 7.87723, 4.0356083, -6.758745, 0.28979737, 1.3226146, -0.628506, 0.0777643, -1.1611383
1566315741831, 7.9153314, 3.9829175, -6.840176, 0.028740235, 1.2598418, -0.69668293, 0.05539375, -1.0482203
1566315741839, 8.067653, 4.016448, -6.9958525, -0.11496094, 1.2127641, -0.78723043, 0.0628506, -0.92038846
1566315741840, 8.305687, 4.129014, -7.201824, -0.26345217, 1.1812078, -0.87564737, 0.07350325, -0.78936094
1566315741849, 8.549198, 4.164939, -7.4580913, -0.34488282, 1.1803331, -0.97471696, 0.111852765, -0.6562029
1566315741851, 8.679413, 4.1170387, -7.6329274, -0.34727785, 1.1922903, -1.0641992, 0.15233281, -0.515588
1566315741860, 8.752615, 4.0882983, -7.7335186, -0.2945874, 1.242802, -1.1675298, 0.19600865, -0.37816888
1566315741861, 8.822547, 3.9637575, -7.879615, -0.1939966, 1.3009217, -1.2506205, 0.29188246, -0.20772657
1566315741869, 8.889006, 3.8703518, -8.0017605, -0.081430666, 1.3917667, -1.3432984, 0.35899413, -0.060720075
1566315741871, 8.793411, 3.671565, -7.9897857, 0.083825685, 1.4878447, -1.4168017, 0.43888897, 0.11717909
1566315741881, 8.714228, 3.4344583, -7.999366, 0.3903882, 1.6139376, -1.4977618, 0.52624065, 0.2908172
1566315741882, 8.6666, 3.4057178, -7.951465, 0.5340894, 1.722915, -1.5606124, 0.57098174, 0.45486793
1566315741889, 8.830082, 3.6045046, -7.9969707, 1.0130934, 1.8271401, -1.6202673, 0.588026, 0.6061355
1566315741891, 9.038218, 3.8104763, -8.097562, 1.2645704, 1.9241631, -1.6607473, 0.6114618, 0.7552725
1566315741899, 9.449511, 4.1984696, -8.310719, 1.6118482, 2.0127063, -1.7012273, 0.60933125, 0.8863
1566315741900, 9.731155, 4.4595265, -8.487949, 1.6621436, 2.0933974, -1.7278589, 0.5997439, 1.0183928
1566315741910, 9.89648, 4.785249, -8.4448395, 1.9303858, 2.1631093, -1.7385116, 0.6018744, 1.1377025
1566315741912, 10.327573, 5.010381, -8.782537, 2.1028273, 2.2385569, -1.743838, 0.60933125, 1.2644689
1566315741920, 10.82918, 5.357659, -9.144185, 2.2249732, 2.3107288, -1.7353158, 0.6359629, 1.3869743
1566315741921, 11.130475, 5.611531, -9.319021, 2.3566992, 2.392895, -1.7108147, 0.6775082, 1.5297197
1566315741932, 11.572047, 5.736072, -9.711804, 2.5866213, 2.4828606, -1.6767262, 0.7456851, 1.6724652
1566315741933, 11.807316, 5.750442, -9.929751, 2.7830129, 2.551377, -1.6309199, 0.7946873, 1.7939054
1566315741940, 12.060812, 5.836663, -10.075848, 3.1422658, 2.6059484, -1.562743, 0.8021441, 1.9249328
1566315741941, 12.200891, 5.9228835, -10.116563, 3.3817677, 2.629784, -1.4828482, 0.7765778, 2.0282636
1566315741950, 12.182187, 5.8677983, -10.008787, 3.7146754, 2.6596951, -1.3923006, 0.700944, 2.15503
1566315741951, 12.159629, 5.9180937, -9.898616, 3.8535867, 2.6694715, -1.3028184, 0.5773733, 2.2572954
1566315741962, 12.150816, 6.0378447, -9.85311, 3.755391, 2.6978729, -1.2133362, 0.4101268, 2.3744745
1566315741965, 12.166961, 6.1552005, -9.8938265, 3.5015187, 2.731877, -1.1387677, 0.25246766, 2.4703484
1566315741970, 12.240392, 6.2438164, -10.080638, 3.0368848, 2.8013256, -1.0865698, 0.10013486, 2.5800705
1566315741971, 12.401026, 6.4114676, -10.257869, 2.7303224, 2.892788, -1.0343717, -0.011717909, 2.7015107
1566315741980, 12.59485, 6.574329, -10.480606, 2.3590944, 2.9879515, -0.9960223, -0.09374327, 2.815494
1566315741982, 12.750279, 6.7611403, -10.574012, 2.2465284, 3.0864248, -0.95447695, -0.16405073, 2.9305425
1566315741991, 12.614544, 6.806646, -10.403965, 2.1339624, 3.1649265, -0.9235843, -0.1917476, 3.02109
1566315741992, 12.471464, 6.844966, -10.200389, 2.1531227, 3.2527764, -0.87777793, -0.2034655, 3.125486
1566315742000, 12.096134, 6.70366, -9.78605, 2.3686745, 3.3481722, -0.829841, -0.21944448, 3.2362735
1566315742001, 11.814905, 6.7563505, -9.350157, 2.5530908, 3.4383993, -0.7840346, -0.23435818, 3.3396041
1566315742010, 11.575319, 6.844966, -8.935819, 2.699187, 3.5043824, -0.716923, -0.257794, 3.4205642
1566315742011, 11.491959, 7.053333, -8.586145, 2.931504, 3.5528016, -0.62744075, -0.28229508, 3.4855454
1566315742020, 11.651928, 7.472461, -8.337064, 3.2284865, 3.5858755, -0.53263223, -0.33449304, 3.5302863
1566315742023, 11.795114, 7.8197393, -8.047266, 3.63564, 3.6191616, -0.4101268, -0.42397526, 3.5707664
1566315742030, 12.44085, 8.722662, -7.92991, 3.9757326, 3.6268353, -0.28655612, -0.71479243, 3.5441349
1566315742031, 12.888475, 9.69504, -7.913145, 3.0823903, 3.5727136, -0.112918034, -0.79042625, 3.4823494
1566315742040, 12.977437, 9.558523, -7.692803, 4.2272096, 3.5235894, 0.09161274, -0.7488809, 3.4418695
1566315742041, 13.232023, 9.697434, -7.544312, 4.912185, 3.4826655, 0.2790993, -0.7094661, 3.3981936
1566315742050, 13.437822, 10.015972, -7.527547, 4.8571, 3.4496853, 0.45167214, -0.6870956, 3.3502567
1566315742051, 13.578852, 10.41594, -7.5035963, 4.4259963, 3.3919177, 0.6423545, -0.6466155, 3.2671661
1566315742063, 13.941657, 10.962005, -7.606582, 4.0427933, 3.3369663, 0.8266452, -0.5837649, 3.1798143
1566315742064, 14.270807, 11.572735, -7.553892, 3.558999, 3.2657042, 0.9821738, -0.52411014, 3.0700922
1566315742071, 14.730855, 12.178675, -7.6161623, 3.2668068, 3.149005, 1.1025487, -0.45380265, 2.9145637
1566315742073, 15.003919, 12.559483, -7.668853, 2.926714, 3.03342, 1.2058793, -0.39095205, 2.755839
1566315742083, 15.157717, 12.82054, -7.704778, 2.454895, 2.9081788, 1.2953615, -0.3174488, 2.5843315
1566315742084, 15.072881, 12.866045, -7.6377177, 1.8226099, 2.7700894, 1.3411679, -0.23009712, 2.412824
1566315742094, 14.914849, 12.779825, -7.6041875, 1.1424243, 2.6532583, 1.3731259, -0.14274544, 2.2658174
1566315742095, 14.872123, 12.775035, -7.577842, 0.7448511, 2.524556, 1.3667343, -0.05006743, 2.122007
1566315742102, 14.678366, 12.602593, -7.5179667, 0.3305127, 2.3822858, 1.3315805, 0.039414786, 1.9750003
1566315742103, 14.544801, 12.513978, -7.4125857, 0.07185059, 2.2537344, 1.2911005, 0.12676647, 1.8429075
1566315742113, 14.197733, 12.133169, -7.3718705, -0.13172609, 2.1136432, 1.2261194, 0.21944448, 1.707619
1566315742115, 13.734556, 11.714041, -7.1611085, -0.37122804, 2.0058253, 1.1547467, 0.30360037, 1.6117451
1566315742122, 13.416608, 11.373948, -7.0916533, -0.5891748, 1.9065036, 1.0844392, 0.3717773, 1.5233282
1566315742124, 12.9936, 11.0123005, -6.8497562, -0.80233157, 1.7988008, 0.98750013, 0.44208476, 1.4370418
1566315742132, 12.664163, 10.729688, -6.67013, -0.87418216, 1.7036407, 0.87351686, 0.50387007, 1.3731259
1566315742134, 12.224661, 10.308165, -6.4928985, -1.0130934, 1.6152925, 0.7584683, 0.5454154, 1.3177321
1566315742145, 11.612623, 9.855506, -6.023474, -1.1999048, 1.5465332, 0.6423545, 0.63383234, 1.2559468
1566315742147, 11.253816, 9.639954, -5.6498513, -1.341211, 1.5064019, 0.51984906, 0.7222493, 1.2154667
1566315742152, 11.050335, 9.517808, -5.374424, -1.6238233, 1.4426359, 0.37710363, 0.7669904, 1.1622036
1566315742154, 10.525614, 9.060359, -5.1660576, -1.4178516, 1.3847377, 0.23542345, 0.7755125, 1.1227888
1566315742163, 10.137702, 8.765772, -4.9433208, -1.223855, 1.3147824, 0.10546118, 0.76485986, 1.0641992
1566315742164, 9.657719, 8.346643, -4.775669, -0.8933423, 1.2909471, 0.00958738, 0.78083885, 1.0279802
1566315742174, 9.220933, 8.013736, -4.533772, -0.5005591, 1.2782929, -0.056459017, 0.79255676, 1.0013486
1566315742176, 8.896223, 7.831714, -4.2176294, 0.13651612, 1.2492414, -0.096939065, 0.78723043, 0.9651296
1566315742183, 8.723137, 7.7311234, -3.9853127, 0.66342044, 1.2392712, -0.113983296, 0.8000136, 0.9395633
1566315742184, 8.655115, 7.661668, -3.923042, 0.9053174, 1.22268, -0.12463594, 0.8085357, 0.9086706
1566315742194, 8.735636, 7.7790236, -3.8679566, 0.9148975, 1.2261698, -0.12250541, 0.83729786, 0.8873653
1566315742196, 8.742073, 7.7143583, -4.023633, 0.85023195, 1.2286749, -0.12996227, 0.89375687, 0.8330368
1566315742203, 8.7692375, 7.776629, -3.9757326, 0.78556645, 1.2494012, -0.12676647, 0.95660746, 0.793622
1566315742205, 8.820873, 7.8197393, -4.030818, 0.64186525, 1.267077, -0.13954964, 1.010936, 0.75101143
1566315742215, 8.684988, 7.695198, -4.0020776, 0.44307864, 1.2920802, -0.15659387, 1.0684602, 0.7094661
1566315742217, 8.698615, 7.695198, -4.047583, 0.25866213, 1.3081417, -0.1917476, 1.1121361, 0.66152924
1566315742227, 8.563866, 7.6233473, -3.9014869, 0.05269043, 1.3419749, -0.23648871, 1.1536814, 0.64341974
1566315742228, 8.502393, 7.541917, -3.9254372, -0.033530276, 1.3557411, -0.2695119, 1.1877699, 0.5954828
1566315742237, 8.364794, 7.414981, -3.8511915, -0.39517823, 1.3749003, -0.3291667, 1.2101405, 0.5635249
1566315742238, 8.31376, 7.2928348, -3.9685476, -0.42870852, 1.406214, -0.38775626, 1.2367721, 0.5454154
1566315742247, 8.357079, 7.32397, -3.9948928, -0.49097902, 1.424402, -0.45060685, 1.2463595, 0.5219796
1566315742248, 8.254572, 7.1706886, -4.045188, -0.5963599, 1.4536664, -0.51026165, 1.2548815, 0.5273059
1566315742253, 8.203372, 7.082073, -4.1146436, -0.45744875, 1.4599923, -0.55606806, 1.24849, 0.5134575
1566315742256, 8.199362, 7.067703, -4.145779, -0.29937744, 1.4541035, -0.6061355, 1.2197278, 0.5091964
1566315742266, 8.072111, 6.928792, -4.140989, -0.05508545, 1.4324654, -0.624245, 1.180313, 0.5187838
1566315742267, 8.180432, 7.0293827, -4.184099, 0.023950197, 1.410032, -0.64768076, 1.135572, 0.52837116
1566315742277, 8.028494, 6.9240017, -4.0595584, 0.18681154, 1.3744843, -0.66152924, 1.0780476, 0.53795856
1566315742278, 8.117713, 6.969507, -4.1553593, 0.23710695, 1.3436955, -0.67537767, 1.0301107, 0.5368933
1566315742287, 8.208395, 6.991062, -4.29427, 0.24908204, 1.332573, -0.6956177, 0.9960223, 0.5475459
1566315742288, 8.380008, 7.1060233, -4.4331813, 0.27542725, 1.310619, -0.70627034, 0.95128113, 0.5603291
1566315742295, 8.409001, 7.1611085, -4.397256, 0.3065625, 1.2931284, -0.7190535, 0.92038846, 0.5550028
1566315742296, 8.586731, 7.30481, -4.488267, 0.4766089, 1.2705483, -0.7222493, 0.8831042, 0.5592638
1566315742307, 8.674692, 7.3862405, -4.517007, 0.5388794, 1.2378763, -0.71585774, 0.83516735, 0.567786
1566315742308, 8.727568, 7.4197707, -4.536167, 0.73527104, 1.1974989, -0.70200926, 0.7850999, 0.5699165
1566315742318, 8.713831, 7.441326, -4.4475513, 0.8813672, 1.1622397, -0.6892261, 0.7339672, 0.58056915
1566315742319, 8.875118, 7.5874224, -4.4762917, 1.0777588, 1.1067805, -0.6583334, 0.67324716, 0.5816344
1566315742328, 8.959349, 7.678433, -4.4499464, 1.2286451, 1.0581878, -0.62317973, 0.6199839, 0.58909124
1566315742329, 9.004036, 7.719148, -4.4283915, 1.3699512, 1.0022259, -0.5901565, 0.5571333, 0.588026
1566315742339, 9.127871, 7.8580594, -4.378096, 1.5495777, 0.94304603, -0.55287224, 0.49534798, 0.5816344
1566315742340, 9.292887, 8.071217, -4.382886, 1.4154567, 0.8859504, -0.51665324, 0.4282363, 0.5784386
1566315742350, 9.401071, 8.207732, -4.296665, 1.5974782, 0.8229166, -0.4644553, 0.35792887, 0.5773733
1566315742350, 9.577083, 8.358619, -4.402046, 1.5735279, 0.78146064, -0.44101948, 0.3121225, 0.56459016
1566315742359, 9.853513, 8.650811, -4.4379716, 1.5998731, 0.7273424, -0.40266997, 0.25672874, 0.5486112
1566315742360, 10.13019, 8.919053, -4.5553274, 1.5232325, 0.69480234, -0.37816888, 0.22690132, 0.5368933
1566315742369, 10.325211, 9.08431, -4.6918435, 1.4394068, 0.64963144, -0.34834146, 0.2034655, 0.5091964
1566315742369, 10.621008, 9.395662, -4.766089, 1.346001, 0.60765564, -0.3270362, 0.18855181, 0.47617322
1566315742379, 10.976789, 9.7812605, -4.8379397, 1.1879297, 0.57081574, -0.32170987, 0.18535602, 0.43356264
1566315742380, 11.195613, 9.934542, -5.022356, 1.1927198, 0.53088444, -0.3110572, 0.18855181, 0.386691
1566315742389, 11.49542, 10.253079, -5.0558863, 1.2070899, 0.48865807, -0.294013, 0.19387813, 0.3387541
1566315742390, 11.641428, 10.370435, -5.1660576, 1.1352394, 0.44696826, -0.28655612, 0.18855181, 0.28655612
1566315742399, 11.782474, 10.459051, -5.264253, 1.3124708, 0.40750092, -0.25992453, 0.19068234, 0.24927188
1566315742400, 11.962585, 10.629097, -5.343289, 1.2549903, 0.37710062, -0.2545982, 0.18855181, 0.20453078
1566315742411, 11.946346, 10.559642, -5.465435, 1.1567944, 0.32176453, -0.21624869, 0.17576863, 0.16085494
1566315742412, 11.990615, 10.542876, -5.585186, 1.1951149, 0.29355913, -0.21518342, 0.14487597, 0.13741912
1566315742419, 11.966923, 10.475816, -5.6714063, 1.1400293, 0.26628628, -0.20133498, 0.12996227, 0.11611383
1566315742419, 11.968641, 10.4566555, -5.704937, 1.1663746, 0.22824271, -0.18855181, 0.099069595, 0.082025364
1566315742429, 12.03507, 10.509346, -5.767207, 1.0657837, 0.20028389, -0.17789917, 0.068176925, 0.06178534
1566315742430, 12.198298, 10.636282, -5.858218, 1.1615845, 0.18955123, -0.18216023, 0.03195793, 0.041545313
1566315742440, 12.308476, 10.691368, -5.982759, 1.1831397, 0.1776534, -0.1768339, 0.0, 0.017044231
1566315742440, 12.497299, 10.897339, -6.0210795, 1.0849439, 0.19123203, -0.18429075, -0.046871636, -0.020240024
1566315742445, 12.464405, 10.813514, -6.080955, 1.2046949, 0.20197931, -0.18002969, -0.07989483, -0.04474111
1566315742446, 12.6179285, 10.995535, -6.0498195, 1.3076807, 0.23053317, -0.17789917, -0.11930962, -0.08522116
1566315742462, 12.7674465, 11.1104965, -6.133645, 1.3939015, 0.29243013, -0.18855181, -0.18109496, -0.13102753
1566315742464, 12.997827, 11.309282, -6.210286, 1.5735279, 0.3399596, -0.18109496, -0.21731395, -0.18855181
1566315742467, 13.335755, 11.60866, -6.382727, 1.5304176, 0.41093397, -0.18748654, -0.2695119, -0.24714136
1566315742468, 13.670455, 11.838582, -6.6413894, 1.6190332, 0.47533956, -0.19387813, -0.29933932, -0.314253
1566315742476, 13.906724, 12.001443, -6.847361, 1.5735279, 0.53626835, -0.20240025, -0.3089267, -0.3888215
1566315742477, 14.080992, 12.073294, -7.084468, 1.5232325, 0.59040356, -0.19707392, -0.32810146, -0.4495416
1566315742486, 14.173079, 12.056529, -7.2593045, 1.6789087, 0.64404464, -0.1917476, -0.34301516, -0.51026165
1566315742488, 14.158493, 11.996654, -7.302415, 1.7938697, 0.6719624, -0.18535602, -0.34088463, -0.5486112
1566315742498, 14.252287, 12.0253935, -7.3958206, 1.954336, 0.69997686, -0.16298546, -0.3355583, -0.59228706
1566315742504, 14.189458, 11.903248, -7.417376, 2.1531227, 0.7220034, -0.14594123, -0.34194988, -0.61891866
1566315742506, 14.413256, 12.008629, -7.6137676, 2.3590944, 0.7468727, -0.10652645, -0.350472, -0.6508766
1566315742506, 14.585131, 12.104429, -7.7622585, 2.440525, 0.76012796, -0.07243799, -0.35153726, -0.67005134
1566315742519, 14.742514, 12.12838, -8.028106, 2.4069948, 0.7894386, -0.026631612, -0.36218992, -0.700944
1566315742520, 14.983868, 12.312796, -8.186177, 2.42855, 0.80092233, 0.011717909, -0.36112466, -0.71479243
1566315742530, 15.013942, 12.274476, -8.279583, 2.4908204, 0.8187228, 0.07669904, -0.3653857, -0.7286409
1566315742531, 15.115014, 12.415782, -8.255632, 2.4812403, 0.84031004, 0.14061491, -0.36964676, -0.7414241
1566315742540, 15.005979, 12.269686, -8.253238, 2.5530908, 0.85329276, 0.20240025, -0.37284255, -0.74035877
1566315742541, 14.930014, 12.312796, -8.01613, 2.6536818, 0.87936205, 0.26418558, -0.39414784, -0.74035877
1566315742549, 14.79809, 12.240946, -7.8820095, 2.6488917, 0.93376124, 0.34088463, -0.43782368, -0.75101143
1566315742551, 15.012049, 12.506792, -7.824529, 2.7782228, 1.0023125, 0.4111921, -0.4889564, -0.77231675
1566315742559, 15.216836, 12.722344, -7.8891945, 2.7303224, 1.0979615, 0.47404268, -0.5837649, -0.8000136
1566315742559, 15.676628, 13.170213, -8.056846, 2.7183473, 1.2084185, 0.531567, -0.67324716, -0.8511463
1566315742574, 16.06447, 13.558207, -8.231683, 2.5459058, 1.3403995, 0.5773733, -0.77231675, -0.9310411
1566315742575, 16.388172, 13.888719, -8.382568, 2.3255641, 1.4759223, 0.6146576, -0.87990844, -1.0130665
1566315742578, 16.694956, 14.224022, -8.49274, 2.066902, 1.6039311, 0.61678815, -0.9917612, -1.099353
1566315742581, 16.940722, 14.437179, -8.674761, 1.81782, 1.7329056, 0.63383234, -1.0769824, -1.200553
1566315742590, 17.033949, 14.523399, -8.746612, 1.6501685, 1.8499378, 0.62317973, -1.1632688, -1.2964269
1566315742591, 16.950949, 14.413228, -8.765772, 1.6597486, 1.9561747, 0.60720074, -1.2314457, -1.3933659
1566315742600, 16.934563, 14.360538, -8.820857, 1.6573536, 2.0696743, 0.5933523, -1.3102753, -1.4881744
1566315742601, 16.9295, 14.343773, -8.816068, 1.7723145, 2.1843545, 0.59867865, -1.3699301, -1.5925703
1566315742610, 16.884796, 14.240787, -8.863968, 1.9303858, 2.2977686, 0.5933523, -1.442368, -1.6873789
1566315742611, 16.7486, 14.05637, -8.866363, 2.078877, 2.4150016, 0.5965481, -1.5116103, -1.7864485
1566315742621, 16.709286, 13.936619, -8.916658, 2.3375392, 2.5421329, 0.6135923, -1.5883093, -1.8876486
1566315742622, 16.616474, 13.747413, -8.983719, 2.5315359, 2.6764915, 0.63702816, -1.6777915, -1.9856529
1566315742634, 16.502525, 13.565392, -8.988508, 2.7422974, 2.7910445, 0.6625945, -1.7587516, -2.0634172
1566315742635, 16.404144, 13.380975, -9.017249, 2.955454, 2.8971734, 0.6870956, -1.8141453, -2.1518342
1566315742640, 16.2056, 13.112733, -9.043594, 2.9817994, 3.0122774, 0.7222493, -1.8759307, -2.2434468
1566315742643, 16.07011, 12.930711, -9.024434, 3.0991554, 3.1135418, 0.7584683, -1.9302592, -2.3222766
1566315742651, 15.815144, 12.624148, -8.923843, 3.3338673, 3.2188425, 0.809601, -1.9888487, -2.3979104
1566315742652, 15.600999, 12.394227, -8.813672, 3.4775686, 3.3006861, 0.84581995, -2.0229373, -2.4671526
1566315742665, 15.316648, 12.087664, -8.725057, 3.515889, 3.4070656, 0.9054748, -2.0751352, -2.5459821
1566315742666, 15.0415535, 11.814631, -8.552615, 3.6763551, 3.4887166, 0.97471696, -2.0932446, -2.6152241
1566315742670, 14.677614, 11.417059, -8.396939, 3.8176613, 3.5686083, 1.0343717, -2.1156151, -2.6812706
1566315742673, 14.311205, 11.076965, -8.241262, 3.767366, 3.6314352, 1.1057445, -2.111354, -2.7398603
1566315742686, 13.9737015, 10.844649, -7.9562554, 3.788921, 3.6782448, 1.1590078, -2.0953753, -2.7920582
1566315742687, 13.469225, 10.370435, -7.7622585, 3.6907253, 3.7192342, 1.2080098, -2.062352, -2.8495824
1566315742689, 13.152163, 10.147698, -7.606582, 3.4847536, 3.748321, 1.2452941, -2.0165455, -2.9039109
1566315742690, 12.806213, 9.901011, -7.4580913, 3.2165112, 3.7661347, 1.2602079, -1.9494339, -2.9656963
1566315742699, 12.346518, 9.5561285, -7.2521195, 2.919529, 3.7699757, 1.2783173, -1.8801918, -3.0072415
1566315742700, 11.975562, 9.216036, -7.175479, 2.6441016, 3.7408464, 1.2708606, -1.7726, -3.0391996
1566315742712, 11.634777, 8.995694, -6.957532, 2.4572902, 3.7245913, 1.24849, -1.6703347, -3.086071
1566315742713, 11.254761, 8.741821, -6.7659307, 2.1148024, 3.7059076, 1.2218584, -1.5659387, -3.1286817
1566315742720, 11.091347, 8.655601, -6.6605496, 1.9327809, 3.6578388, 1.1835088, -1.4434333, -3.145726
1566315742724, 10.793529, 8.361013, -6.6294146, 1.6262183, 3.6249251, 1.139833, -1.3177321, -3.178749
1566315742733, 10.673378, 8.2197075, -6.6365995, 1.5208374, 3.572003, 1.091896, -1.1867046, -3.1872714
1566315742734, 10.565739, 8.1071415, -6.6533647, 1.2813355, 3.5241172, 1.0535465, -1.0535465, -3.193663
1566315742743, 10.497267, 8.006551, -6.6749196, 1.2382251, 3.4733686, 1.0088054, -0.9054748, -3.197924
1566315742744, 10.2871, 7.7598634, -6.6581545, 1.1304493, 3.426643, 0.96299905, -0.7755125, -3.1957934
1566315742757, 10.115177, 7.561077, -6.6437845, 1.0035132, 3.3987956, 0.9321064, -0.63915867, -3.2053807
1566315742758, 9.907014, 7.3551054, -6.576724, 0.8933423, 3.3554974, 0.8873653, -0.5219796, -3.193663
1566315742759, 9.732133, 7.1395535, -6.552774, 0.89573735, 3.3219435, 0.8479505, -0.42184472, -3.1840754
1566315742760, 9.593966, 6.9862723, -6.5144534, 0.8933423, 3.313033, 0.8149273, -0.3355583, -3.193663
1566315742776, 9.448355, 6.847361, -6.473738, 0.68976563, 3.2730515, 0.7595336, -0.25566345, -3.1734228
1566315742777, 9.370119, 6.74198, -6.4833183, 0.55803955, 3.2629688, 0.721184, -0.18961707, -3.1766186
1566315742782, 9.27932, 6.6461797, -6.468948, 0.2945874, 3.240724, 0.67537767, -0.12676647, -3.1670313
1566315742783, 9.187256, 6.4905033, -6.4905033, 0.3903882, 3.2054949, 0.6114618, -0.07563378, -3.145726
1566315742797, 9.121693, 6.471343, -6.4282327, 0.06945557, 3.185289, 0.56245965, -0.03195793, -3.1350732
1566315742798, 9.1153, 6.4090724, -6.480923, 0.100590825, 3.1671057, 0.49854377, 0.0053263223, -3.1276164
1566315742800, 9.03261, 6.253396, -6.5168486, 0.117355965, 3.1524103, 0.44847634, 0.034088463, -3.1201596
1566315742801, 9.149923, 6.2270513, -6.70366, 0.07664063, 3.146877, 0.4101268, 0.07669904, -3.1190944
1566315742817, 9.120532, 6.07856, -6.799461, 0.050295413, 3.1227496, 0.34408042, 0.10226539, -3.10205
1566315742818, 9.192754, 6.1599903, -6.823411, 0.047900394, 3.1227443, 0.29188246, 0.13102753, -3.106311
1566315742820, 9.223178, 6.0450296, -6.964717, 0.13172609, 3.1064847, 0.2396845, 0.15126756, -3.093528
1566315742821, 9.260706, 6.0354495, -7.0221977, 0.15088624, 3.0975122, 0.20240025, 0.17257284, -3.086071
1566315742838, 9.10065, 5.9085135, -6.919212, 0.18920656, 3.091958, 0.16937704, 0.18429075, -3.08181
1566315742840, 9.1498995, 5.8198977, -7.053333, 0.3161426, 3.08768, 0.14807177, 0.20133498, -3.077549
1566315742841, 9.066734, 5.6857767, -7.0509377, 0.4023633, 3.0879023, 0.11504856, 0.20985709, -3.0786142
1566315742842, 8.96878, 5.4750147, -7.0916533, 0.4143384, 3.0646205, 0.08522116, 0.2247708, -3.0551784
1566315742858, 8.931896, 5.3863993, -7.1132083, 0.40954837, 3.0380876, 0.0628506, 0.23222765, -3.0285468
1566315742859, 8.859052, 5.1564775, -7.1874537, 0.48379397, 3.0176566, 0.046871636, 0.24607609, -3.0072415
1566315742860, 8.867732, 5.0846267, -7.2521195, 0.43589357, 2.9866328, 0.025566347, 0.25885928, -2.9752836
1566315742861, 8.868705, 4.86189, -7.4030056, 0.45984375, 2.949419, 0.007456851, 0.28229508, -2.9358687
1566315742878, 8.6644125, 4.5792775, -7.340735, 0.46463382, 2.907943, -0.00958738, 0.3121225, -2.8911278
1566315742880, 8.554926, 4.3637257, -7.3455253, 0.43349856, 2.8482144, -0.029827405, 0.32597092, -2.8293424
1566315742882, 8.361432, 4.1170387, -7.2569094, 0.5484595, 2.7802432, -0.04474111, 0.33981937, -2.7590349
1566315742883, 8.094701, 3.7506008, -7.1635036, 0.37601808, 2.701985, -0.056459017, 0.33768883, -2.6802053
1566315742891, 8.005264, 3.5853443, -7.1443434, 0.43349856, 2.61993, -0.08735169, 0.34194988, -2.5960495
1566315742892, 7.886566, 3.319497, -7.1467385, 0.32093263, 2.5252802, -0.12357068, 0.32490566, -2.501241
1566315742901, 7.756288, 3.0991554, -7.1060233, 0.244292, 2.4142938, -0.15126756, 0.3110572, -2.389388
1566315742902, 7.6506143, 2.9171338, -7.072493, 0.045505375, 2.3090854, -0.20133498, 0.29933932, -2.2807312
1566315742911, 7.505931, 2.7135572, -6.998247, -0.011975098, 2.1931705, -0.24074976, 0.28336033, -2.1614215
1566315742913, 7.5142455, 2.694397, -7.0126176, -0.16525635, 2.0637474, -0.29827404, 0.24607609, -2.0271983
1566315742923, 7.481451, 2.668052, -6.9886675, -0.1101709, 1.961835, -0.36964676, 0.21837921, -1.9142802
1566315742923, 7.410586, 2.560276, -6.943162, -0.39278322, 1.8394538, -0.43995422, 0.18109496, -1.7768611
1566315742940, 7.544804, 2.6704469, -7.038963, -0.49576905, 1.7250111, -0.5230448, 0.14594123, -1.6373115
1566315742941, 7.663104, 2.675237, -7.1491337, -0.67539555, 1.6324028, -0.6125271, 0.11930962, -1.5084145
1566315742942, 7.8133388, 2.7279274, -7.27128, -0.85741705, 1.5535388, -0.7137272, 0.099069595, -1.3763217
1566315742946, 7.8373156, 2.811753, -7.2616997, -0.8861573, 1.4738834, -0.81066626, 0.080960095, -1.2282499
1566315742956, 7.9869313, 2.8836036, -7.3694754, -1.0801538, 1.4249437, -0.9289106, 0.07350325, -1.0780476
1566315742957, 7.9347606, 2.792593, -7.3383403, -1.1448194, 1.4012156, -1.0407634, 0.058589544, -0.93636745
1566315742965, 7.9231467, 2.7446926, -7.3479204, -1.1184741, 1.4003253, -1.164334, 0.06178534, -0.7755125
1566315742966, 7.9366, 2.699187, -7.4030056, -0.9484278, 1.4147427, -1.2857742, 0.05006743, -0.588026
1566315742975, 7.9361506, 2.5411158, -7.438931, -1.089734, 1.4663105, -1.4082797, 0.054328486, -0.4048005
1566315742976, 7.87704, 2.4716604, -7.429351, -0.86220706, 1.5270758, -1.5116103, 0.05006743, -0.21092236
1566315742985, 7.7593246, 2.308799, -7.3814507, -0.62510014, 1.6196369, -1.619202, 0.037284255, -0.004261058
1566315742986, 7.812835, 2.3471193, -7.446116, -0.2945874, 1.7085797, -1.6969663, 0.017044231, 0.19813919
1566315742999, 7.912383, 2.5123756, -7.5012016, 0.16046631, 1.8134445, -1.7662084, -0.0031957934, 0.4111921
1566315743000, 8.039329, 2.5459058, -7.6137676, 0.4239185, 1.923136, -1.8152106, -0.01917476, 0.6348976
1566315743003, 8.372746, 2.7542725, -7.8676395, 0.78556645, 2.0186315, -1.8322549, -0.022370555, 0.84688526
1566315743007, 8.759668, 3.0823903, -8.119117, 1.1448194, 2.1282494, -1.8471686, -0.026631612, 1.0567423
1566315743015, 8.957943, 3.3051271, -8.200547, 1.4394068, 2.2263632, -1.8322549, -0.025566347, 1.2644689
1566315743016, 9.144876, 3.4679885, -8.289163, 1.7004639, 2.332881, -1.808819, -0.0031957934, 1.4732608
1566315743024, 9.2218075, 3.5566041, -8.270002, 1.9998415, 2.4247372, -1.7566211, 0.007456851, 1.6714
1566315743025, 9.257041, 3.8176613, -8.0999565, 2.3471193, 2.5244205, -1.7044232, 0.017044231, 1.8620822
1566315743039, 9.413917, 3.9565725, -8.169412, 2.4956105, 2.6386127, -1.6564863, 0.010652645, 2.05383
1566315743040, 9.493376, 4.296665, -8.102351, 2.4525, 2.7417667, -1.6000272, 0.018109497, 2.2264028
1566315743044, 9.939327, 4.8163843, -8.349038, 2.4261549, 2.8648157, -1.5574167, 0.03089267, 2.404302
1566315743046, 10.335564, 5.295388, -8.598121, 2.203418, 2.967686, -1.5126755, 0.066046394, 2.5523736
1566315743060, 10.648184, 5.6522465, -8.792117, 2.0333717, 3.0796945, -1.4689997, 0.10546118, 2.7047064
1566315743061, 10.966426, 6.11209, -8.933423, 1.7603394, 3.1993349, -1.4476944, 0.16085494, 2.8485172
1566315743064, 11.1777115, 6.2677665, -9.101074, 1.6813037, 3.3139808, -1.4317155, 0.22050974, 2.98061
1566315743065, 11.278358, 6.564749, -9.017249, 1.6717237, 3.42032, -1.3944311, 0.28016454, 3.110572
1566315743080, 11.281792, 6.720425, -8.907078, 1.6669337, 3.5518086, -1.3720607, 0.33768883, 3.2586439
1566315743081, 11.21294, 6.7539554, -8.744217, 1.9112257, 3.6589484, -1.3326459, 0.34940675, 3.3896716
1566315743086, 11.263131, 6.9024467, -8.681946, 1.9591261, 3.7840793, -1.293231, 0.36218992, 3.5377433
1566315743087, 11.4299555, 7.2329593, -8.638836, 1.9232007, 3.8831089, -1.2602079, 0.36325517, 3.6549222
1566315743093, 11.5793295, 7.4652762, -8.660391, 1.829795, 3.9952989, -1.2367721, 0.35153726, 3.7827542
1566315743094, 11.827864, 7.8436894, -8.684341, 1.719624, 4.0980673, -1.216532, 0.34834146, 3.8978026
1566315743103, 12.0969515, 8.351434, -8.58854, 1.6813037, 4.183985, -1.2069446, 0.3536678, 3.9904807
1566315743105, 12.416967, 8.804092, -8.629255, 1.4849122, 4.2590547, -1.1930962, 0.34940675, 4.073571
1566315743120, 12.89244, 9.307046, -8.782537, 1.5687379, 4.331151, -1.1622036, 0.3355583, 4.1587925
1566315743121, 13.415057, 9.932146, -8.854387, 1.707649, 4.3789477, -1.1334413, 0.32277513, 4.217382
1566315743125, 14.012894, 10.511742, -9.081915, 1.839375, 4.3916907, -1.0844392, 0.30040458, 4.245079
1566315743127, 14.57713, 11.129656, -9.163345, 2.1579127, 4.409049, -1.010936, 0.28122982, 4.282363
1566315743134, 15.240792, 11.836187, -9.307046, 2.3590944, 4.3989778, -0.91825795, 0.26205507, 4.294081
1566315743135, 15.713363, 12.319981, -9.386082, 2.6512868, 4.3745766, -0.80747044, 0.23435818, 4.293016
1566315743147, 16.131424, 12.779825, -9.414823, 2.8740237, 4.325765, -0.67005134, 0.18429075, 4.26958
1566315743148, 16.614668, 13.258829, -9.510623, 3.1302907, 4.287042, -0.535828, 0.128897, 4.2514706
1566315743157, 16.849644, 13.5797615, -9.433982, 3.2404616, 4.2336526, -0.39840892, 0.07563378, 4.214186
1566315743158, 17.09987, 13.883929, -9.414823, 3.3171022, 4.1774697, -0.24074976, 0.011717909, 4.1705103
1566315743171, 17.17951, 14.077926, -9.278306, 3.295547, 4.1248484, -0.09267801, -0.037284255, 4.1236386
1566315743172, 17.022083, 14.097086, -9.05557, 3.0033545, 4.0757127, 0.03089267, -0.08841695, 4.0746365
1566315743175, 16.96231, 14.185701, -8.885523, 2.7446926, 4.024484, 0.15446335, -0.13528858, 4.019243
1566315743177, 16.72914, 14.106666, -8.679551, 2.3519094, 3.984796, 0.257794, -0.18002969, 3.972371
1566315743191, 16.573858, 14.116245, -8.449629, 2.0070264, 3.919796, 0.3334278, -0.22903186, 3.8988678
1566315743192, 16.4647, 14.166541, -8.202942, 1.7627344, 3.8674045, 0.3930826, -0.26631612, 3.8381479
1566315743196, 16.380253, 14.221626, -7.9969707, 1.4513819, 3.7971923, 0.43675843, -0.3089267, 3.7593184
1566315743197, 16.197462, 14.257552, -7.6137676, 1.0538087, 3.7315247, 0.46658584, -0.34834146, 3.685815
1566315743208, 16.045555, 14.180911, -7.462881, 0.8167017, 3.6295373, 0.47830373, -0.38562572, 3.577158
1566315743209, 15.813884, 14.133011, -7.072493, 0.5628296, 3.537997, 0.47297743, -0.41758367, 3.4812841
1566315743216, 15.54937, 14.02284, -6.70845, 0.37362307, 3.446168, 0.4612595, -0.4250405, 3.3886063
1566315743218, 15.084857, 13.737833, -6.224656, 0.2802173, 3.3363726, 0.42397526, -0.43995422, 3.2799492
1566315743225, 14.734039, 13.551021, -5.7839723, 0.086220704, 3.2208116, 0.3898868, -0.44528055, 3.165966
1566315743226, 14.123327, 13.124707, -5.216353, 0.009580079, 3.1179862, 0.3334278, -0.44528055, 3.0679617
1566315743235, 13.677213, 12.81096, -4.790039, -0.031135255, 3.0292466, 0.2759035, -0.43675843, 2.984871
1566315743235, 13.211612, 12.487633, -4.3134303, 0.0047900393, 2.9148595, 0.21411815, -0.42184472, 2.876214
1566315743251, 12.824919, 12.212205, -3.915857, 0.081430666, 2.80646, 0.16405073, -0.3930826, 2.7739487
1566315743251, 12.5581255, 12.037369, -3.5637891, 0.3281177, 2.7022696, 0.12783173, -0.36964676, 2.6738138
1566315743255, 12.449601, 11.979888, -3.3626075, 0.40954837, 2.5864737, 0.08735169, -0.32810146, 2.5640914
1566315743255, 12.295434, 11.852952, -3.2117214, 0.60833496, 2.454782, 0.06711166, -0.28442562, 2.437325
1566315743265, 12.314577, 11.884088, -3.1566358, 0.6730005, 2.3179739, 0.037284255, -0.21837921, 2.3073628
1566315743267, 12.215548, 11.8074465, -3.0009596, 0.8933423, 2.194107, 0.015978966, -0.1470065, 2.1891184
1566315743275, 12.218017, 11.833792, -2.9027638, 0.9029224, 2.0452127, 0.004261058, -0.0628506, 2.0442424
1566315743276, 12.20028, 11.824212, -2.8692336, 0.89573735, 1.9151552, -0.0127831735, 0.056459017, 1.9142802
1566315743285, 12.068531, 11.721226, -2.7566676, 0.8143067, 1.7727796, -0.015978966, 0.17470337, 1.7640779
1566315743285, 12.076454, 11.726016, -2.7758276, 0.79754156, 1.6513245, -0.026631612, 0.29507825, 1.6245283
1566315743295, 12.06241, 11.728411, -2.7015822, 0.8047266, 1.5457898, -0.041545313, 0.4346279, 1.4828482
1566315743300, 12.023275, 11.678116, -2.787803, 0.6394702, 1.4642229, -0.06711166, 0.5763081, 1.3443637
1566315743305, 11.923333, 11.55597, -2.8955786, 0.49097902, 1.4167733, -0.082025364, 0.7286409, 1.212271
1566315743306, 11.753756, 11.400293, -2.8524685, 0.21794678, 1.3769028, -0.10546118, 0.85540736, 1.0737866
1566315743321, 11.397611, 10.98835, -3.0249097, 0.10777588, 1.3710095, -0.1438107, 0.97258645, 0.9555422
1566315743322, 11.207381, 10.744058, -3.187771, 0.09340577, 1.3727362, -0.1736381, 1.0620687, 0.8522116
1566315743328, 10.835133, 10.336905, -3.2476466, 0.035925295, 1.3841467, -0.20133498, 1.1366372, 0.7637946
1566315743330, 10.514363, 10.0063925, -3.2284865, 0.028740235, 1.3897685, -0.21944448, 1.1867046, 0.6892261
1566315743335, 10.178473, 9.627979, -3.300337, 0.10538086, 1.3815643, -0.24714136, 1.2080098, 0.62317973
1566315743336, 9.91615, 9.311836, -3.408113, -0.06706055, 1.3598963, -0.2695119, 1.2069446, 0.5656554
1566315743346, 9.662825, 9.0004835, -3.515889, 0.0023950196, 1.3451726, -0.2876214, 1.1984226, 0.5390238
1566315743347, 9.415963, 8.696317, -3.6092947, -0.086220704, 1.31463, -0.30679616, 1.1739215, 0.50600064
1566315743359, 9.220217, 8.4448395, -3.7003052, -0.06945557, 1.2908412, -0.31851408, 1.1472899, 0.49854377
1566315743360, 8.944946, 8.119117, -3.7529957, -0.083825685, 1.26573, -0.34940675, 1.1068097, 0.5049353
1566315743366, 8.8143215, 7.9394903, -3.8248463, -0.16525635, 1.2549634, -0.37710363, 1.0812434, 0.5134575
1566315743367, 8.6192045, 7.673643, -3.915857, -0.2682422, 1.25004, -0.406931, 1.0567423, 0.5294364
1566315743376, 8.560963, 7.575447, -3.9853127, -0.14130616, 1.2361498, -0.4261058, 1.0247844, 0.54435015
1566315743377, 8.449177, 7.429351, -4.0116577, -0.3161426, 1.2336084, -0.45699844, 0.99282646, 0.572047
1566315743389, 8.486229, 7.460486, -4.038003, -0.22752686, 1.2285973, -0.45912898, 0.96299905, 0.60933125
1566315743390, 8.396762, 7.4030056, -3.9613624, -0.09340577, 1.2160454, -0.46978164, 0.92464954, 0.6348976
1566315743397, 8.431914, 7.417376, -4.009263, -0.07424561, 1.1909361, -0.479369, 0.8745821, 0.6508766
1566315743398, 8.55555, 7.5395217, -4.0356083, 0.25866213, 1.1688534, -0.47617322, 0.8266452, 0.67537767
1566315743407, 8.774941, 7.7359133, -4.1218286, 0.40715334, 1.1224738, -0.45912898, 0.76059884, 0.6860303
1566315743407, 8.971521, 7.92512, -4.176914, 0.48379397, 1.0795019, -0.45593318, 0.6956177, 0.68816084
1566315743421, 9.20626, 8.157437, -4.2200246, 0.6346802, 1.0354114, -0.43782368, 0.628506, 0.69668293
1566315743421, 9.451006, 8.358619, -4.361331, 0.6586304, 0.99702835, -0.41971418, 0.56885123, 0.7030745
1566315743429, 9.578971, 8.449629, -4.4523416, 0.732876, 0.9475167, -0.386691, 0.49641323, 0.70840085
1566315743430, 9.811793, 8.665181, -4.5385623, 0.7664063, 0.90741396, -0.36964676, 0.44208476, 0.700944
1566315743437, 9.999582, 8.796907, -4.6966333, 0.74006104, 0.8784421, -0.32810146, 0.38136467, 0.72011876
1566315743438, 10.3162775, 9.050779, -4.87626, 0.855022, 0.86018044, -0.30679616, 0.33662358, 0.72970617
1566315743447, 10.651223, 9.393267, -4.9409256, 0.89573735, 0.8411873, -0.26844665, 0.2790993, 0.74675035
1566315743449, 10.927025, 9.599238, -5.130132, 0.96758795, 0.81877965, -0.23755397, 0.24394555, 0.74461985
1566315743457, 11.097543, 9.831555, -5.0654664, 0.9148975, 0.79380286, -0.19707392, 0.21518342, 0.73822826
1566315743460, 11.443742, 10.128538, -5.257068, 0.85741705, 0.78663194, -0.16724652, 0.18216023, 0.74675035
1566315743468, 11.549069, 10.221944, -5.2834134, 0.98914313, 0.7737443, -0.12676647, 0.16298546, 0.7456851
1566315743469, 11.764826, 10.447076, -5.3121533, 1.0250684, 0.75137174, -0.094808534, 0.11717909, 0.73609775
1566315743480, 11.8811865, 10.557246, -5.345684, 1.0633887, 0.7356174, -0.051132694, 0.0777643, 0.72970617
1566315743481, 12.034534, 10.772799, -5.2043777, 1.3004956, 0.7229757, -0.022370555, 0.023435818, 0.7222493
1566315743490, 12.183157, 10.93087, -5.221143, 1.2981006, 0.69620067, 0.017044231, -0.04474111, 0.6945524
1566315743491, 12.261349, 11.06978, -5.113367, 1.2861255, 0.69034475, 0.05539375, -0.12037488, 0.6775082
1566315743499, 12.544451, 11.338023, -5.1684523, 1.4489869, 0.6793256, 0.098004326, -0.19813919, 0.6423545
1566315743500, 12.848323, 11.64698, -5.1900077, 1.5783179, 0.66218936, 0.12676647, -0.26525086, 0.5933523
1566315743510, 13.170571, 11.999048, -5.1971927, 1.5735279, 0.6688198, 0.16405073, -0.3472762, 0.5475459
1566315743511, 13.624513, 12.430152, -5.350474, 1.5783179, 0.6724688, 0.19600865, -0.43249738, 0.47617322
1566315743521, 14.091436, 12.873231, -5.489385, 1.6477735, 0.6856092, 0.20985709, -0.51452273, 0.4016047
1566315743522, 14.65848, 13.40732, -5.724097, 1.5328126, 0.6978336, 0.221575, -0.59122175, 0.2972088
1566315743531, 15.048558, 13.752203, -5.9564137, 1.3627661, 0.7225894, 0.22050974, -0.6583334, 0.20026971
1566315743532, 15.478323, 14.05158, -6.358777, 1.3028907, 0.7446107, 0.21518342, -0.7073356, 0.08841695
1566315743540, 15.960199, 14.396463, -6.7874856, 1.1831397, 0.74991447, 0.20133498, -0.7222493, -0.013848438
1566315743541, 16.128965, 14.535374, -6.8976564, 1.1352394, 0.7592474, 0.19707392, -0.7254451, -0.10652645
1566315743550, 16.234238, 14.5856695, -7.038963, 1.1232642, 0.76730776, 0.18429075, -0.7137272, -0.2130529
1566315743551, 16.362652, 14.597645, -7.3000197, 1.1639795, 0.7656362, 0.16724652, -0.69348717, -0.27803403
1566315743559, 16.57838, 14.770086, -7.429351, 1.22146, 0.77595574, 0.16085494, -0.6711166, -0.35473305
1566315743560, 16.7046, 14.748531, -7.7311234, 1.3244458, 0.7609359, 0.13848437, -0.6306366, -0.40266997
1566315743570, 16.870823, 14.808407, -7.9538603, 1.4394068, 0.75711006, 0.16192019, -0.58483016, -0.4527374
1566315743572, 16.88326, 14.746136, -8.059241, 1.6262183, 0.76699704, 0.16831179, -0.54435015, -0.5134575
1566315743579, 16.909079, 14.777271, -8.018526, 1.8034497, 0.7682824, 0.18535602, -0.49428272, -0.5581986
1566315743580, 16.82242, 14.68147, -7.9826, 1.9303858, 0.7848599, 0.221575, -0.4495416, -0.6040049
1566315743589, 16.63533, 14.552139, -7.783814, 2.0932472, 0.80144215, 0.2727077, -0.3834952, -0.6487461
1566315743590, 16.299917, 14.322217, -7.431746, 2.308799, 0.8381844, 0.3291667, -0.3387541, -0.6924219
1566315743600, 15.825201, 13.982124, -6.967112, 2.5291407, 0.8836149, 0.39627838, -0.30466563, -0.7286409
1566315743601, 15.513606, 13.831239, -6.476133, 2.7255323, 0.937889, 0.44741106, -0.28229508, -0.77444726
1566315743608, 15.277685, 13.778548, -6.08814, 2.548301, 1.0238261, 0.49002165, -0.30146983, -0.84688526
1566315743610, 15.356244, 13.982124, -5.7791824, 2.6297317, 1.1399848, 0.5390238, -0.34088463, -0.94488955
1566315743618, 15.601776, 14.264737, -5.7815776, 2.550696, 1.2644635, 0.5752428, -0.40586576, -1.0503508
1566315743619, 15.996542, 14.731766, -5.8198977, 2.2345533, 1.4253948, 0.58909124, -0.46658584, -1.2112057
1566315743628, 16.441706, 15.146104, -6.0426345, 2.1004322, 1.6021851, 0.6018744, -0.5411543, -1.3827133
1566315743629, 16.732786, 15.399976, -6.2581863, 1.9136207, 1.7739404, 0.588026, -0.6018744, -1.5616777
1566315743638, 17.06487, 15.663428, -6.576724, 1.6166383, 1.9479609, 0.5816344, -0.6530071, -1.7406421
1566315743641, 17.21472, 15.704144, -6.8904715, 1.4992822, 2.1162183, 0.56459016, -0.6860303, -1.9206718
1566315743648, 17.295162, 15.646664, -7.2281694, 1.4346168, 2.2689893, 0.5454154, -0.7073356, -2.0857878
1566315743649, 17.316345, 15.529307, -7.5179667, 1.4753321, 2.4019904, 0.535828, -0.70840085, -2.231729
1566315743659, 17.27102, 15.301781, -7.846084, 1.6070582, 2.5233068, 0.5550028, -0.7222493, -2.3531692
1566315743660, 17.191576, 15.000008, -8.214917, 1.7507594, 2.6583622, 0.5816344, -0.76059884, -2.4799356
1566315743669, 17.155893, 14.753321, -8.53106, 1.9711012, 2.7687657, 0.6103965, -0.7840346, -2.5843315
1566315743670, 16.953312, 14.391673, -8.703502, 2.1315675, 2.8802454, 0.64341974, -0.8788432, -2.666357
1566315743679, 16.900564, 14.121036, -8.974138, 2.3854396, 2.9901056, 0.6945524, -0.94808537, -2.7494476
1566315743680, 16.782763, 13.876743, -9.134604, 2.3782544, 3.086117, 0.74248934, -1.0226538, -2.815494
1566315743689, 16.782505, 13.6923275, -9.402847, 2.3998096, 3.1791277, 0.77444726, -1.1110709, -2.876214
1566315743690, 16.750755, 13.534256, -9.582474, 2.3638844, 3.2753751, 0.81066626, -1.2048141, -2.9358687
1566315743699, 16.621517, 13.34505, -9.627979, 2.3423293, 3.3714533, 0.8404937, -1.2964269, -2.996589
1566315743700, 16.467293, 13.112733, -9.697434, 2.2776637, 3.462105, 0.86392945, -1.3709954, -3.0594394
1566315743709, 16.308271, 12.961846, -9.656719, 2.1674929, 3.5482106, 0.8671253, -1.4636734, -3.113768
1566315743711, 16.094559, 12.698394, -9.656719, 2.1291726, 3.6240714, 0.8681905, -1.530785, -3.1680965
1566315743719, 15.994813, 12.513978, -9.726174, 2.1531227, 3.6989155, 0.86499476, -1.603223, -3.2192292
1566315743720, 15.513168, 12.049344, -9.568104, 1.9806812, 3.7543292, 0.86606, -1.6468989, -3.2607746
1566315743729, 15.057415, 11.57992, -9.422008, 1.9639161, 3.8038301, 0.8543421, -1.695901, -3.2959282
1566315743731, 14.466731, 11.033855, -9.1130495, 2.1195924, 3.8313859, 0.82877576, -1.7470337, -3.307646
1566315743741, 14.103212, 10.696157, -8.8879175, 2.3447242, 3.8645988, 0.81705785, -1.7768611, -3.3332124
1566315743742, 13.912183, 10.590776, -8.674761, 2.4764502, 3.872366, 0.8064052, -1.7726, -3.347061
1566315743751, 13.694105, 10.36804, -8.590936, 2.4956105, 3.8669271, 0.7861652, -1.7289242, -3.3683662
1566315743752, 13.64225, 10.43031, -8.509504, 2.215393, 3.8476028, 0.76912093, -1.6522251, -3.3886063
1566315743763, 13.368655, 10.205178, -8.396939, 2.0166066, 3.8392828, 0.74781567, -1.5563514, -3.4290862
1566315743764, 13.180665, 10.020762, -8.334668, 1.961521, 3.799715, 0.7233146, -1.4583471, -3.4333472
1566315743774, 12.947937, 9.807606, -8.222102, 1.9639161, 3.7861893, 0.6892261, -1.3635385, -3.46424
1566315743775, 12.686667, 9.611214, -8.042476, 1.9734962, 3.7609997, 0.6625945, -1.2655342, -3.4791536
1566315743784, 12.321624, 9.307046, -7.8556643, 1.8681153, 3.751581, 0.6466155, -1.1590078, -3.5089812
1566315743786, 12.026351, 9.0891, -7.6592727, 1.83219, 3.7226472, 0.62104917, -1.0450244, -3.5185685
1566315743792, 11.869393, 8.911868, -7.592212, 1.954336, 3.7089121, 0.608266, -0.9289106, -3.5388086
1566315743799, 11.70496, 8.799302, -7.4892263, 1.8681153, 3.6975951, 0.58269966, -0.8159926, -3.5590487
1566315743801, 11.453393, 8.5502205, -7.3838453, 1.8848804, 3.664172, 0.567786, -0.6945524, -3.552657
1566315743802, 11.344602, 8.428074, -7.3575, 1.8800904, 3.6592157, 0.5486112, -0.5752428, -3.5718317
1566315743818, 11.19668, 8.298743, -7.34313, 1.6046631, 3.6583745, 0.53476274, -0.46658584, -3.588876
1566315743819, 10.984826, 8.008945, -7.340735, 1.6238233, 3.650474, 0.52411014, -0.34301516, -3.5963328
1566315743821, 10.831556, 7.8508744, -7.3072047, 1.5136524, 3.6302516, 0.50387007, -0.22903186, -3.5878108
1566315743822, 10.807623, 7.783814, -7.32876, 1.583108, 3.6122475, 0.4878911, -0.11930962, -3.577158
1566315743838, 10.510317, 7.32397, -7.4197707, 1.331631, 3.6018012, 0.479369, -0.020240024, -3.5697012
1566315743839, 10.350465, 7.194639, -7.3311553, 1.2741505, 3.5928946, 0.46232477, 0.07456851, -3.5622444
1566315743841, 10.139632, 6.9072366, -7.3383403, 1.1184741, 3.5666192, 0.4463458, 0.14487597, -3.5356128
1566315743842, 10.1298065, 6.806646, -7.4101906, 1.1711646, 3.5350204, 0.43675843, 0.21198763, -3.5015242
1566315743855, 9.9447155, 6.5336137, -7.431746, 0.98914313, 3.515101, 0.42077947, 0.2727077, -3.4791536
1566315743856, 9.745777, 6.2989016, -7.3718705, 0.97956306, 3.4870632, 0.40373522, 0.314253, -3.4493263
1566315743862, 9.691823, 6.1480155, -7.441326, 0.87178713, 3.4417279, 0.4016047, 0.3387541, -3.4013894
1566315743863, 9.518593, 5.9468336, -7.3958206, 0.73527104, 3.3999593, 0.37923414, 0.3568636, -3.3598442
1566315743876, 9.509636, 5.858218, -7.4509063, 0.77359134, 3.3554232, 0.37390783, 0.34940675, -3.3161683
1566315743877, 9.383839, 5.726492, -7.3958206, 0.75203615, 3.3081605, 0.3536678, 0.35153726, -3.270362
1566315743883, 9.2975, 5.5947657, -7.3766603, 0.852627, 3.2553613, 0.34834146, 0.3355583, -3.2192292
1566315743885, 9.233539, 5.400769, -7.448511, 0.7807764, 3.2036173, 0.350472, 0.32170987, -3.1680965
1566315743896, 9.152899, 5.333709, -7.3886356, 0.85741705, 3.1539898, 0.33449304, 0.29507825, -3.1222901
1566315743898, 9.060858, 5.230723, -7.3575, 0.7783814, 3.0931785, 0.34301516, 0.26525086, -3.0626354
1566315743904, 8.970327, 5.110972, -7.321575, 0.859812, 3.037948, 0.34621096, 0.23009712, -3.009372
1566315743906, 8.797375, 4.9337406, -7.237749, 0.8167017, 2.9866743, 0.34834146, 0.2034655, -2.9593046
1566315743915, 8.739354, 4.82357, -7.2329593, 0.8909473, 2.9383268, 0.34940675, 0.17150758, -2.912433
1566315743918, 8.561051, 4.6750784, -7.1251836, 0.8167017, 2.8804033, 0.34194988, 0.15233281, -2.855974
1566315743924, 8.469628, 4.519402, -7.1203933, 0.7807764, 2.8129134, 0.35260254, 0.12783173, -2.787797
1566315743926, 8.260856, 4.385281, -6.962322, 0.732876, 2.7499282, 0.33768883, 0.10546118, -2.727077
1566315743933, 8.007709, 4.0787187, -6.8593364, 0.6610254, 2.6762733, 0.32384038, 0.10226539, -2.654639
1566315743935, 7.8557267, 3.8631666, -6.823411, 0.47900394, 2.5954852, 0.3121225, 0.099069595, -2.5747442
1566315743943, 7.7102, 3.6332448, -6.7850904, 0.45744875, 2.5082579, 0.28655612, 0.07882957, -2.4905882
1566315743945, 7.4547653, 3.4608033, -6.593489, 0.34967285, 2.409133, 0.2727077, 0.07137272, -2.392584
1566315743953, 7.379188, 3.278782, -6.595884, 0.44307864, 2.3229418, 0.2428803, 0.05752428, -2.3094933
1566315743955, 7.191174, 3.051255, -6.502478, 0.34727785, 2.2070444, 0.20026971, 0.036218993, -2.1976407
1566315743963, 7.0634575, 2.8883936, -6.444998, 0.10777588, 2.097578, 0.16405073, 0.0127831735, -2.091114
1566315743964, 7.0524936, 2.8428884, -6.452183, 0.1580713, 1.9809787, 0.12250541, -0.014913702, -1.9771309
1566315743973, 7.009355, 2.7494826, -6.447393, 0.050295413, 1.8627509, 0.0777643, -0.020240024, -1.861017
1566315743974, 6.991708, 2.6393116, -6.473738, -0.09340577, 1.7402043, 0.01917476, -0.04261058, -1.7395768
1566315743983, 7.0879316, 2.6033864, -6.591094, -0.13651612, 1.6114501, -0.05219796, -0.056459017, -1.6096146
1566315743987, 7.117741, 2.5698562, -6.631809, -0.2778223, 1.4872699, -0.10652645, -0.070307456, -1.4817829
1566315743994, 7.1864457, 2.6057813, -6.67971, -0.48618898, 1.3733809, -0.18855181, -0.07669904, -1.3582122
1566315743995, 7.2120633, 2.6033864, -6.6988697, -0.6011499, 1.2475284, -0.26844665, -0.083090626, -1.2154667
1566315744007, 7.2216773, 2.6081765, -6.706055, -0.61552006, 1.1446512, -0.36005938, -0.0958738, -1.0823087
1566315744008, 7.2866516, 2.6009912, -6.7611403, -0.78556645, 1.0444927, -0.46339005, -0.096939065, -0.9310411
1566315744017, 7.289514, 2.4788454, -6.7874856, -0.96040285, 0.9886142, -0.56885123, -0.10972224, -0.80107886
1566315744019, 7.319134, 2.4501052, -6.832991, -0.9364527, 0.9354533, -0.67324716, -0.0958738, -0.6423545
1566315744025, 7.303976, 2.3758595, -6.821016, -1.0849439, 0.9286088, -0.78296936, -0.1107875, -0.48682585
1566315744027, 7.3147306, 2.327959, -6.8497562, -1.0801538, 0.97506267, -0.9129316, -0.12037488, -0.3206446
1566315744037, 7.230938, 2.2752686, -6.799461, -0.9364527, 1.0401608, -1.0226538, -0.12783173, -0.14061491
1566315744039, 7.2336884, 2.1603076, -6.837781, -0.9508228, 1.1506463, -1.144094, -0.11611383, 0.039414786
1566315744046, 7.219893, 2.1339624, -6.847361, -0.8286768, 1.275204, -1.2495552, -0.11930962, 0.2247708
1566315744048, 7.2171845, 2.066902, -6.8880763, -0.60833496, 1.4188315, -1.3486248, -0.12783173, 0.42184472
1566315744057, 7.2164617, 2.1100123, -6.8976564, -0.21794678, 1.5640132, -1.4306501, -0.15126756, 0.6135923
1566315744060, 7.3659024, 2.3423293, -6.981482, 0.17004639, 1.7008274, -1.4913702, -0.1587244, 0.8021441
1566315744065, 7.723355, 2.6033864, -7.2497244, 0.5604346, 1.8378927, -1.5211977, -0.18216023, 1.015197
1566315744068, 8.064053, 2.9338992, -7.448511, 0.9699829, 1.964127, -1.5488945, -0.2130529, 1.1888351
1566315744075, 8.447951, 3.2428565, -7.695198, 1.2789404, 2.0817854, -1.555286, -0.20985709, 1.3677995
1566315744078, 8.870647, 3.5685792, -7.95865, 1.6166383, 2.1971412, -1.5350461, -0.18855181, 1.5606124
1566315744086, 8.96826, 3.5949244, -8.023315, 1.7699195, 2.3042564, -1.4977618, -0.17044231, 1.7427727
1566315744088, 9.024711, 3.666775, -8.008945, 1.9639161, 2.4354231, -1.4753913, -0.14274544, 1.9323897
1566315744098, 8.932029, 3.6763551, -7.8484793, 2.1603076, 2.5545044, -1.4189322, -0.11717909, 2.1209416
1566315744100, 8.924486, 3.8176613, -7.699988, 2.4045997, 2.697008, -1.3731259, -0.101200126, 2.3190808
1566315744107, 9.04783, 4.006868, -7.690408, 2.5818312, 2.81544, -1.3038837, -0.08735169, 2.4937842
1566315744109, 9.365074, 4.4116263, -7.817344, 2.6704469, 2.949379, -1.2495552, -0.07243799, 2.670618
1566315744115, 9.789086, 4.9696655, -8.044871, 2.5315359, 3.0797732, -1.1930962, -0.04474111, 2.83893
1566315744118, 10.276759, 5.611531, -8.313113, 2.2393434, 3.2057369, -1.1472899, 0.008522116, 2.9933932
1566315744125, 10.782162, 6.1073003, -8.614885, 2.1770728, 3.3231065, -1.1004182, 0.058589544, 3.1350732
1566315744135, 11.001927, 6.550379, -8.602911, 2.0309765, 3.4255555, -1.0727214, 0.11611383, 3.251187
1566315744141, 11.284565, 6.943162, -8.717872, 1.7699195, 3.5335503, -1.0354371, 0.15765914, 3.3747578
1566315744142, 11.495771, 7.216194, -8.804092, 1.6022681, 3.64106, -1.0237192, 0.1949434, 3.4887412
1566315744146, 11.647733, 7.5203614, -8.777747, 1.4370118, 3.753204, -1.031176, 0.20879184, 3.6027243
1566315744148, 11.937771, 7.941885, -8.823253, 1.2597803, 3.8578808, -1.0375676, 0.21944448, 3.709251
1566315744158, 12.2499895, 8.377779, -8.863968, 1.1424243, 3.9469469, -1.0471549, 0.22690132, 3.798733
1566315744160, 12.775194, 8.962164, -9.062755, 0.8669971, 4.0265656, -1.067395, 0.23435818, 3.875432
1566315744169, 13.227736, 9.390872, -9.287886, 0.7209009, 4.1228685, -1.1025487, 0.23116238, 3.9659796
1566315744170, 13.709966, 9.848321, -9.515413, 0.6562354, 4.1969204, -1.1323761, 0.2396845, 4.0341563
1566315744178, 14.203504, 10.375225, -9.692644, 0.38320315, 4.253504, -1.160073, 0.23861924, 4.085289
1566315744180, 14.696543, 10.887759, -9.855506, 0.5604346, 4.315971, -1.1867046, 0.23755397, 4.1428137
1566315744189, 15.158073, 11.266172, -10.114168, 0.7376661, 4.3830643, -1.200553, 0.23542345, 4.20886
1566315744190, 15.478668, 11.623031, -10.174044, 0.9915381, 4.433553, -1.2080098, 0.22264028, 4.2599926
1566315744196, 15.842212, 12.013418, -10.241104, 1.331631, 4.4643807, -1.1728562, 0.2066613, 4.3026032
1566315744198, 16.159607, 12.3559065, -10.284214, 1.6429834, 4.4821053, -1.1185277, 0.1768339, 4.3366914
1566315744207, 16.430601, 12.691209, -10.226734, 2.076482, 4.512997, -1.051416, 0.13422333, 4.386759
1566315744210, 16.697546, 12.913946, -10.296189, 2.454895, 4.503298, -0.96299905, 0.07563378, 4.398477
1566315744218, 16.908184, 13.328284, -10.025552, 2.7806177, 4.4961715, -0.85327685, 0.007456851, 4.414456
1566315744220, 17.038055, 13.534256, -9.939331, 2.8859987, 4.472974, -0.7392935, -0.041545313, 4.41126
1566315744227, 17.071678, 13.6995125, -9.73815, 2.9889846, 4.440617, -0.624245, -0.10439592, 4.3952813
1566315744229, 17.18701, 13.986915, -9.5561285, 2.9051588, 4.402907, -0.5049353, -0.16405073, 4.37078
1566315744237, 17.30935, 14.298267, -9.319021, 2.8859987, 4.3484416, -0.4048005, -0.19920446, 4.3249736
1566315744239, 17.27288, 14.463524, -9.048384, 2.699187, 4.2886996, -0.294013, -0.2428803, 4.2717104
1566315744250, 17.24462, 14.64315, -8.732242, 2.5890162, 4.223764, -0.20453078, -0.25672874, 4.2109904
1566315744253, 17.12092, 14.712605, -8.396939, 2.4812403, 4.1256227, -0.13209279, -0.2790993, 4.1140513
1566315744258, 17.030226, 14.829962, -8.042476, 2.327959, 4.031114, -0.041545313, -0.27696875, 4.0213733
1566315744260, 16.771204, 14.774877, -7.6209526, 2.2129982, 3.9339743, 0.024501082, -0.2727077, 3.9244342
1566315744267, 16.482222, 14.7054205, -7.1323686, 2.1315675, 3.8341002, 0.084155895, -0.2759035, 3.823234
1566315744269, 16.043728, 14.468313, -6.6246243, 2.0453467, 3.7277625, 0.15233281, -0.25885928, 3.7156425
1566315744278, 15.687278, 14.288687, -6.1959157, 1.8800904, 3.6214402, 0.1917476, -0.24501082, 3.6080508
1566315744280, 15.385123, 14.161751, -5.719307, 1.8537452, 3.5108573, 0.23116238, -0.20453078, 3.4972632
1566315744287, 14.942939, 13.895904, -5.1947975, 1.7914747, 3.3967166, 0.2790993, -0.16618125, 3.3811493
1566315744288, 14.613988, 13.723462, -4.727769, 1.698069, 3.2800093, 0.3121225, -0.12037488, 3.2629051
1566315744297, 14.201598, 13.433665, -4.287085, 1.6860938, 3.1764796, 0.33981937, -0.07137272, 3.1574438
1566315744298, 13.930871, 13.266014, -3.9589674, 1.5519727, 3.0442128, 0.3568636, 0.004261058, 3.0232205
1566315744307, 13.670825, 13.151052, -3.4799635, 1.3531861, 2.9263566, 0.37284255, 0.06498113, 2.9017804
1566315744310, 13.407467, 12.961846, -3.2452517, 1.104104, 2.7889318, 0.37071204, 0.15020229, 2.7601001
1566315744321, 13.203885, 12.79659, -3.06802, 1.0849439, 2.6552522, 0.36005938, 0.23116238, 2.6205506
1566315744322, 13.006303, 12.676839, -2.792593, 0.8143067, 2.5150833, 0.34301516, 0.31638354, 2.4714136
1566315744331, 12.91472, 12.621754, -2.6345215, 0.73527104, 2.3717632, 0.32810146, 0.4111921, 2.312689
1566315744333, 12.769974, 12.494818, -2.560276, 0.62989014, 2.2460592, 0.28549087, 0.49534798, 2.1720743
1566315744342, 12.756809, 12.492422, -2.548301, 0.4263135, 2.1185887, 0.2545982, 0.59761333, 2.0165455
1566315744344, 12.519665, 12.269686, -2.4740553, 0.27542725, 1.9894389, 0.21944448, 0.69135666, 1.8524948
1566315744348, 12.454798, 12.164305, -2.6560767, 0.31135255, 1.8734225, 0.165116, 0.7669904, 1.7012273
1566315744350, 12.237504, 11.958333, -2.5890162, 0.22752686, 1.7744713, 0.14913702, 0.8490158, 1.551025
1566315744361, 12.143824, 11.855348, -2.6225464, 0.21315674, 1.6867994, 0.10972224, 0.9054748, 1.4189322
1566315744362, 11.807754, 11.486514, -2.7279274, 0.20357667, 1.5995637, 0.08841695, 0.94595486, 1.2868395
1566315744369, 11.659548, 11.304493, -2.818938, 0.45505372, 1.5282209, 0.07456851, 0.97045594, 1.1781825
1566315744371, 11.460054, 11.03625, -3.0536501, 0.45744875, 1.4625041, 0.07137272, 0.99495703, 1.0695255
1566315744379, 11.176545, 10.720108, -3.1422658, 0.34727785, 1.4117423, 0.06711166, 1.0056096, 0.98856544
1566315744381, 10.949913, 10.413546, -3.3530276, 0.46463382, 1.3605446, 0.07456851, 1.0098706, 0.9086706
1566315744389, 10.778279, 10.197993, -3.4655933, 0.4023633, 1.3209425, 0.07669904, 0.9981528, 0.86179894
1566315744391, 10.510327, 9.850716, -3.6212697, 0.5628296, 1.2768914, 0.080960095, 0.9779128, 0.81705785
1566315744402, 10.443496, 9.704619, -3.8368216, 0.40715334, 1.2238743, 0.0777643, 0.9374327, 0.78296936
1566315744404, 10.2379, 9.441168, -3.9541774, 0.2083667, 1.1907202, 0.07989483, 0.9054748, 0.76912093
1566315744410, 10.090961, 9.21364, -4.112249, 0.16046631, 1.1231879, 0.080960095, 0.8426242, 0.73822826
1566315744413, 9.985566, 9.06994, -4.176914, 0.033530276, 1.084086, 0.060720075, 0.79255676, 0.737163
1566315744421, 9.79889, 8.851993, -4.2008643, -0.11496094, 1.0398427, 0.046871636, 0.7275756, 0.7414241
1566315744424, 9.602204, 8.626861, -4.2104445, -0.22752686, 1.0161115, 0.011717909, 0.67963874, 0.7552725
1566315744429, 9.479226, 8.452024, -4.2799, -0.31853762, 1.004929, -0.00958738, 0.63383234, 0.7797736
1566315744431, 9.302597, 8.238868, -4.28469, -0.5484595, 1.0109651, -0.05539375, 0.60720074, 0.8064052
1566315744440, 9.134249, 8.085587, -4.1984696, -0.6562354, 1.0228697, -0.08522116, 0.5858955, 0.8341021
1566315744451, 9.091411, 8.0305, -4.2104445, -0.6610254, 1.0507337, -0.12783173, 0.5581986, 0.8809737
1566315744453, 8.899681, 7.8652444, -4.1218286, -0.5939649, 1.0685712, -0.17044231, 0.535828, 0.9086706
1566315744455, 8.852096, 7.8676395, -4.018843, -0.5556446, 1.0977921, -0.20985709, 0.50813115, 0.9502159
1566315744462, 8.857955, 7.975415, -3.8296363, -0.43589357, 1.1138928, -0.22903186, 0.47510794, 0.98110855
1566315744464, 8.924049, 8.059241, -3.8272414, -0.19878663, 1.1253449, -0.26205507, 0.43675843, 1.0034791
1566315744471, 9.1873045, 8.358619, -3.8128712, -0.045505375, 1.1056321, -0.27696875, 0.37816888, 1.0013486
1566315744473, 9.386885, 8.610096, -3.7386258, -0.050295413, 1.0988579, -0.294013, 0.32810146, 1.0066749
1566315744480, 9.671193, 8.890313, -3.8008962, 0.21794678, 1.0664856, -0.28442562, 0.26205507, 0.9938917
1566315744482, 9.913934, 9.1202345, -3.8727467, 0.3305127, 1.0444927, -0.27803403, 0.2066613, 0.9853696
1566315744490, 10.370096, 9.553733, -3.999683, 0.51732427, 1.0316353, -0.27377295, 0.15020229, 0.9832391
1566315744492, 10.504356, 9.656719, -4.0811133, 0.6586304, 1.0015923, -0.25246766, 0.10013486, 0.96406436
1566315744500, 10.855799, 9.977652, -4.2008643, 0.8047266, 0.9873973, -0.22370553, 0.060720075, 0.9598033
1566315744502, 11.214851, 10.260264, -4.430786, 0.9316626, 0.9607345, -0.17576863, 0.036218993, 0.9438243
1566315744512, 11.348225, 10.365645, -4.4643164, 1.1855347, 0.9398144, -0.12783173, -0.008522116, 0.9310411
1566315744514, 11.564327, 10.550061, -4.5313773, 1.3771362, 0.90436494, -0.07669904, -0.041545313, 0.90014845
1566315744521, 11.78342, 10.758429, -4.5816727, 1.453777, 0.8773208, -0.029827405, -0.08735169, 0.8724516
1566315744522, 11.968906, 10.8997345, -4.734954, 1.4250367, 0.8620748, 0.040480047, -0.12357068, 0.8522116
1566315744530, 12.086845, 11.02667, -4.7229786, 1.4825171, 0.8540797, 0.09267801, -0.16405073, 0.8330368
1566315744532, 12.14041, 11.100916, -4.687053, 1.4801221, 0.842641, 0.14168017, -0.2034655, 0.80533993
1566315744541, 12.334593, 11.297308, -4.773274, 1.3148658, 0.83744556, 0.18429075, -0.25353295, 0.7765778
1566315744544, 12.593524, 11.53681, -4.864285, 1.3555812, 0.84181845, 0.23861924, -0.29614353, 0.75101143
1566315744551, 12.678102, 11.66135, -4.806804, 1.2813355, 0.8299176, 0.26418558, -0.3355583, 0.71159667
1566315744554, 12.817616, 11.8002615, -4.8427296, 1.2621753, 0.83637375, 0.30360037, -0.38136467, 0.67963874
1566315744561, 13.100865, 12.1235895, -4.8283596, 1.1567944, 0.8242208, 0.30466563, -0.41864893, 0.6412892
1566315744563, 13.19999, 12.255316, -4.8139896, 0.93405765, 0.80396914, 0.32170987, -0.4495416, 0.5837649
1566315744571, 13.448572, 12.482842, -4.912185, 0.95561284, 0.7715346, 0.31318775, -0.47404268, 0.5219796
1566315744573, 13.652068, 12.758269, -4.8044095, 0.7232959, 0.7464943, 0.3110572, -0.5006743, 0.45806372
1566315744582, 13.800956, 12.916341, -4.8163843, 0.6610254, 0.7067875, 0.27696875, -0.5305017, 0.37603834
1566315744583, 14.162658, 13.304334, -4.82357, 0.5556446, 0.6806506, 0.24607609, -0.57098174, 0.27696875
1566315744590, 14.597092, 13.6995125, -5.0199614, 0.44547364, 0.6588753, 0.20240025, -0.6040049, 0.16831179
1566315744592, 14.917431, 13.958175, -5.249883, 0.37122804, 0.64852214, 0.1438107, -0.6306366, 0.046871636
1566315744600, 15.317868, 14.295872, -5.49657, 0.22992188, 0.64028776, 0.07669904, -0.6306366, -0.07989483
1566315744602, 15.558618, 14.437179, -5.7959476, 0.21315674, 0.6415289, 0.011717909, -0.6103965, -0.19707392
1566315744611, 15.815873, 14.612015, -6.0498195, 0.17483643, 0.6599801, -0.036218993, -0.5763081, -0.31957933
1566315744613, 15.698688, 14.434783, -6.1623855, 0.33290774, 0.6673871, -0.08735169, -0.5070659, -0.4250405
1566315744624, 15.811727, 14.465919, -6.356382, 0.58677983, 0.6873342, -0.12463594, -0.44208476, -0.5113269
1566315744625, 15.593941, 14.240787, -6.2917166, 0.8861573, 0.72959805, -0.13954964, -0.38136467, -0.6061355
1566315744634, 15.512927, 14.085111, -6.382727, 1.2334352, 0.75929224, -0.14274544, -0.31851408, -0.6743124
1566315744635, 15.539517, 14.073135, -6.4042826, 1.5519727, 0.8030603, -0.12037488, -0.2727077, -0.7456851
1566315744643, 15.684674, 14.092296, -6.6270194, 1.8705103, 0.8745101, -0.099069595, -0.2396845, -0.83516735
1566315744645, 15.808324, 14.137801, -6.7371902, 2.1531227, 0.9282733, -0.054328486, -0.2066613, -0.9033443
1566315744652, 15.871744, 14.09469, -6.935977, 2.2680836, 0.9944493, -0.0031957934, -0.17470337, -0.97897804
1566315744653, 15.851868, 14.010865, -7.031778, 2.3519094, 1.0477698, 0.051132694, -0.11930962, -1.0396981
1566315744665, 15.688909, 13.816868, -7.053333, 2.3423293, 1.1033275, 0.10333065, -0.07137272, -1.0961571
1566315744666, 15.358997, 13.495935, -6.9240017, 2.411785, 1.1548622, 0.17789917, -0.020240024, -1.1408982
1566315744673, 14.978641, 13.158237, -6.734795, 2.4213648, 1.2197505, 0.24820662, 0.0127831735, -1.1941614
1566315744675, 14.81723, 13.0384865, -6.567144, 2.5339308, 1.2641314, 0.3153183, 0.02130529, -1.2239889
1566315744682, 14.769947, 13.036092, -6.461763, 2.5411158, 1.3243208, 0.37603834, -0.0063915867, -1.2697952
1566315744684, 14.818727, 13.086388, -6.468948, 2.548301, 1.4031167, 0.4314321, -0.06178534, -1.3337111
1566315744692, 15.226102, 13.48875, -6.6174393, 2.4692652, 1.4988097, 0.49960902, -0.15020229, -1.4050838
1566315744694, 15.547158, 13.749807, -6.919212, 2.186653, 1.6062729, 0.531567, -0.2396845, -1.4966966
1566315744704, 16.047653, 14.147381, -7.30481, 2.0046315, 1.7190889, 0.56885123, -0.32490566, -1.5893745
1566315744706, 16.437557, 14.489869, -7.5874224, 1.6334034, 1.836853, 0.58056915, -0.41438788, -1.6927053
1566315744714, 16.75757, 14.6982355, -7.94428, 1.2909156, 1.9556578, 0.5901565, -0.4889564, -1.7992316
1566315744716, 16.901787, 14.679075, -8.293953, 1.1855347, 2.0559244, 0.59867865, -0.55606806, -1.8865833
1566315744722, 17.021118, 14.73416, -8.440049, 1.1783496, 2.1567736, 0.59228706, -0.6359629, -1.973935
1566315744725, 17.168804, 14.736556, -8.741821, 1.0873389, 2.2464566, 0.588026, -0.700944, -2.0516994
1566315744734, 17.084925, 14.602435, -8.796907, 1.1304493, 2.342678, 0.5944176, -0.777643, -2.1283984
1566315744743, 17.113043, 14.509029, -8.988508, 1.2454102, 2.4333713, 0.5858955, -0.85966843, -2.1997712
1566315744745, 17.167572, 14.473104, -9.148975, 1.2454102, 2.502259, 0.5816344, -0.9331717, -2.247708
1566315744746, 17.153608, 14.420413, -9.206455, 1.2406201, 2.593255, 0.58056915, -1.0024139, -2.320146
1566315744756, 17.191195, 14.394068, -9.295072, 1.3962965, 2.6627448, 0.5603291, -1.0620687, -2.376605
1566315744757, 17.125189, 14.293477, -9.335787, 1.346001, 2.7495515, 0.5581986, -1.1345067, -2.441586
1566315744765, 17.150427, 14.264737, -9.445957, 1.1951149, 2.80956, 0.5294364, -1.171791, -2.4980452
1566315744767, 17.147974, 14.283897, -9.419612, 1.1376343, 2.8868067, 0.49534798, -1.1941614, -2.5811357
1566315744776, 17.034563, 14.137801, -9.438772, 1.099314, 2.9557135, 0.45060685, -1.2144015, -2.6567695
1566315744777, 16.878408, 14.006075, -9.352551, 1.1136842, 3.030257, 0.4133226, -1.2314457, -2.7377295
1566315744787, 16.666595, 13.836028, -9.220825, 1.1472144, 3.088251, 0.3653857, -1.2250541, -2.8112328
1566315744789, 16.517952, 13.718673, -9.1130495, 1.2621753, 3.1442118, 0.32810146, -1.2069446, -2.884736
1566315744793, 16.178722, 13.40253, -8.976534, 1.2430152, 3.2178826, 0.2695119, -1.1930962, -2.9763489
1566315744795, 15.90916, 13.129498, -8.8879175, 1.3124708, 3.2673128, 0.2247708, -1.164334, -3.0445259
1566315744804, 15.802117, 12.981007, -8.902288, 1.3962965, 3.3294175, 0.18109496, -1.1270498, -3.1276164
1566315744806, 15.442905, 12.593013, -8.792117, 1.6118482, 3.3719685, 0.14913702, -1.071656, -3.193663
1566315744816, 15.015503, 12.188255, -8.57896, 1.8202149, 3.431306, 0.12357068, -1.031176, -3.270362
1566315744818, 14.589509, 11.745176, -8.380174, 2.1627028, 3.478758, 0.12357068, -0.96619487, -3.3396041
1566315744824, 14.278453, 11.412269, -8.277188, 2.2632935, 3.5109973, 0.11611383, -0.9076053, -3.3896716
1566315744826, 13.984796, 11.067386, -8.169412, 2.5195606, 3.5519104, 0.13315806, -0.8586032, -3.444
1566315744835, 13.769859, 10.775193, -8.128696, 2.7255323, 3.5875554, 0.16831179, -0.7819041, -3.4972632
1566315744839, 13.55195, 10.533297, -8.032896, 2.8596535, 3.6066444, 0.20026971, -0.7105314, -3.5302863
1566315744844, 13.276188, 10.200389, -8.011341, 2.8333082, 3.6361558, 0.24607609, -0.6348976, -3.5718317
1566315744846, 13.102525, 9.980047, -7.95865, 2.955454, 3.6529186, 0.28442562, -0.54648066, -3.6005938
1566315744854, 12.844973, 9.618399, -7.9634404, 3.0105398, 3.6798239, 0.32384038, -0.45806372, -3.636813
1566315744856, 12.484836, 9.307046, -7.7598634, 3.0057497, 3.682238, 0.37923414, -0.35579833, -3.645335
1566315744864, 12.317785, 9.067544, -7.783814, 2.9865894, 3.6992118, 0.43356264, -0.25992453, -3.6645098
1566315744866, 11.998392, 8.746612, -7.647298, 2.9961696, 3.7124321, 0.47830373, -0.17576863, -3.6772928
1566315744874, 11.740886, 8.47837, -7.5946074, 2.8788135, 3.7246585, 0.5368933, -0.08628642, -3.6847498
1566315744876, 11.472037, 8.248447, -7.479646, 2.7614577, 3.7309065, 0.58483016, -0.015978966, -3.6847498
1566315744884, 11.194859, 7.9227247, -7.431746, 2.7063723, 3.7475955, 0.63915867, 0.05965481, -3.6922066
1566315744885, 10.977292, 7.7167535, -7.3527102, 2.6249416, 3.7585332, 0.67005134, 0.11717909, -3.6964676
1566315744894, 10.7486515, 7.446116, -7.3527102, 2.454895, 3.7526941, 0.71798825, 0.17044231, -3.6794233
1566315744899, 10.500208, 7.1635036, -7.335945, 2.2632935, 3.743065, 0.74248934, 0.19600865, -3.6634445
1566315744904, 10.33342, 6.952742, -7.350315, 2.1004322, 3.7361603, 0.7701862, 0.23222765, -3.6485307
1566315744906, 10.163606, 6.706055, -7.3694754, 2.0046315, 3.7083807, 0.8042747, 0.23755397, -3.6123118
1566315744919, 10.034802, 6.5360084, -7.3742657, 1.8968556, 3.692674, 0.8266452, 0.2545982, -3.5899413
1566315744920, 9.897156, 6.3779373, -7.3886356, 1.6381935, 3.6624742, 0.84688526, 0.25992453, -3.5537221
1566315744928, 9.78275, 6.133645, -7.441326, 1.6453785, 3.631808, 0.86179894, 0.24394555, -3.5196338
1566315744929, 9.578319, 5.9396486, -7.3383403, 1.6166383, 3.5850954, 0.8788432, 0.22370553, -3.468501
1566315744940, 9.517164, 5.8965383, -7.2976246, 1.5974782, 3.5492604, 0.8969527, 0.2034655, -3.428021
1566315744943, 9.4360485, 5.7983427, -7.29523, 1.4825171, 3.5109076, 0.9257148, 0.1736381, -3.3822145
1566315744945, 9.447677, 5.750442, -7.34313, 1.5064673, 3.4744024, 0.93636745, 0.14274544, -3.3428
1566315744947, 9.2353525, 5.518125, -7.2808595, 1.3531861, 3.4241102, 0.96406436, 0.12676647, -3.283145
1566315744958, 9.172276, 5.4223247, -7.2616997, 1.4130616, 3.3897715, 0.99069595, 0.08948222, -3.2405345
1566315744960, 9.13491, 5.372029, -7.2664895, 1.336421, 3.3451009, 0.99708754, 0.053263225, -3.1925976
1566315744966, 8.93888, 5.1157618, -7.2281694, 1.219065, 3.3013635, 1.0013486, 0.026631612, -3.145726
1566315744968, 8.876128, 5.0846267, -7.199429, 1.0490186, 3.252221, 1.0066749, -0.014913702, -3.0924628
1566315744978, 8.685171, 4.9145803, -7.089258, 1.0106983, 3.2125735, 0.99921805, -0.033023197, -3.053048
1566315744981, 8.641944, 4.792434, -7.1467385, 0.79993653, 3.1427336, 0.9853696, -0.05219796, -2.9838057
1566315744986, 8.4691305, 4.5409575, -7.1203933, 0.63707525, 3.08489, 0.97045594, -0.07350325, -2.9273467
1566315744989, 8.310059, 4.402046, -7.0365677, 0.40715334, 3.002076, 0.9353022, -0.07350325, -2.851713
1566315744999, 8.104034, 4.169729, -6.943162, 0.28500733, 2.9291246, 0.9054748, -0.07669904, -2.7846012
1566315745001, 7.8768215, 3.923042, -6.828201, 0.17244141, 2.8593066, 0.87138635, -0.09161274, -2.7217507
1566315745006, 7.6088943, 3.642825, -6.6773148, 0.19639161, 2.7771838, 0.829841, -0.10439592, -2.6482475
1566315745009, 7.2765694, 3.3482375, -6.4593678, 0.119750984, 2.6785977, 0.79042625, -0.11717909, -2.5566347
1566315745016, 7.1913342, 3.1063404, -6.485713, -0.038320314, 2.5758898, 0.7286409, -0.13209279, -2.4671526
1566315745019, 7.0251527, 2.9913795, -6.356382, -0.028740235, 2.462365, 0.6785734, -0.1587244, -2.3616912
1566315745026, 6.7792974, 2.7303224, -6.2031007, -0.16046631, 2.355616, 0.6125271, -0.1736381, -2.267948
1566315745033, 6.6752157, 2.6273365, -6.133645, -0.18441652, 2.2421114, 0.5539375, -0.19813919, -2.163552
1566315745035, 6.5372286, 2.3662794, -6.080955, -0.39757326, 2.11737, 0.48363006, -0.22050974, -2.049569
1566315745038, 6.4344306, 2.3303542, -5.9875493, -0.34727785, 1.988164, 0.41225734, -0.23861924, -1.9302592
1566315745049, 6.5005956, 2.3423293, -6.0426345, -0.50774413, 1.8515396, 0.32277513, -0.25246766, -1.8056233
1566315745051, 6.578282, 2.3135889, -6.13604, -0.51971924, 1.7265334, 0.24820662, -0.26844665, -1.6873789
1566315745058, 6.6692443, 2.3614893, -6.1959157, -0.7161109, 1.591216, 0.14913702, -0.25992453, -1.562743
1566315745060, 6.6428475, 2.3135889, -6.183941, -0.73048097, 1.4615184, 0.06391586, -0.28122982, -1.4327807
1566315745070, 6.821621, 2.3423293, -6.353987, -0.8214917, 1.3053972, -0.036218993, -0.2514024, -1.2804478
1566315745072, 6.886973, 2.3590944, -6.4042826, -0.92208254, 1.1960828, -0.12783173, -0.24714136, -1.1632688
1566315745077, 6.9659247, 2.3926246, -6.466553, -0.9915381, 1.0648351, -0.24181503, -0.221575, -1.0130665
1566315745079, 6.95246, 2.2776637, -6.466553, -1.1543995, 0.9475166, -0.35153726, -0.19707392, -0.85753787
1566315745089, 7.0289783, 2.2106032, -6.583909, -1.0825489, 0.86358595, -0.4676511, -0.1768339, -0.7041398
1566315745091, 6.958722, 2.1411476, -6.5288234, -1.101709, 0.822289, -0.59761333, -0.15446335, -0.5432849
1566315745098, 6.8537903, 1.9232007, -6.461763, -1.2334352, 0.8259277, -0.716923, -0.14807177, -0.38242993
1566315745100, 6.849647, 1.8705103, -6.473738, -1.2286451, 0.8830965, -0.8490158, -0.14061491, -0.19813919
1566315745107, 6.8006406, 1.8800904, -6.4258375, -1.1927198, 1.0026023, -0.9938917, -0.12996227, -0.022370555
1566315745109, 6.795587, 1.8034497, -6.440208, -1.2046949, 1.151644, -1.1313108, -0.13315806, 0.16937704
1566315745118, 6.764761, 1.8274, -6.4210477, -1.092129, 1.3180512, -1.2623384, -0.13102753, 0.35579833
1566315745121, 6.8497863, 1.7675245, -6.557564, -0.8909473, 1.498888, -1.3901701, -0.128897, 0.5454154
1566315745127, 7.044788, 2.1124072, -6.6821046, -0.7185059, 1.6804343, -1.5073493, -0.13315806, 0.7307714
1566315745130, 7.2808223, 2.44292, -6.847361, -0.39517823, 1.841577, -1.5936357, -0.12783173, 0.9139969
1566315745137, 7.775198, 2.9985645, -7.173084, -0.09580079, 1.996307, -1.6703347, -0.1107875, 1.087635
1566315745139, 8.1742115, 3.3793726, -7.441326, 0.15567628, 2.141847, -1.7310548, -0.09054748, 1.2580773
1566315745147, 8.602902, 3.7697608, -7.7167535, 0.5005591, 2.2678509, -1.7747306, -0.06498113, 1.4104102
1566315745149, 8.803339, 3.908672, -7.8412943, 0.85741705, 2.3990312, -1.8013622, -0.035153728, 1.5840483
1566315745157, 9.01515, 4.145779, -7.92512, 1.1304493, 2.516326, -1.8120148, -0.00958738, 1.7459685
1566315745159, 9.122105, 4.140989, -7.9969707, 1.453777, 2.6401126, -1.804558, 0.013848438, 1.9270633
1566315745167, 9.23886, 4.1960745, -8.054451, 1.695674, 2.7577739, -1.7875137, 0.040480047, 2.0996363
1566315745169, 9.417857, 4.4667115, -8.080796, 1.8561403, 2.8725927, -1.743838, 0.06498113, 2.2817965
1566315745178, 9.667468, 4.655918, -8.200547, 2.1291726, 2.9897554, -1.7086842, 0.07456851, 2.4522388
1566315745183, 10.042474, 5.000801, -8.377779, 2.3782544, 3.0984669, -1.659682, 0.080960095, 2.6152241
1566315745191, 10.413839, 5.47262, -8.485555, 2.548301, 3.191893, -1.5968314, 0.09161274, 2.7622306
1566315745192, 10.807909, 5.9396486, -8.653206, 2.579436, 3.2805672, -1.5211977, 0.0958738, 2.9049761
1566315745198, 11.04009, 6.346802, -8.650811, 2.6009912, 3.3685565, -1.4626081, 0.10013486, 3.0328078
1566315745199, 11.228781, 6.6557593, -8.638836, 2.675237, 3.453998, -1.3869743, 0.10013486, 3.161705
1566315745208, 11.387411, 7.0150127, -8.54064, 2.7422974, 3.5359485, -1.3198626, 0.099069595, 3.278884
1566315745209, 11.448104, 7.2760696, -8.4448395, 2.6081765, 3.6237814, -1.252751, 0.08628642, 3.3992589
1566315745218, 11.532623, 7.455696, -8.399334, 2.6201515, 3.702429, -1.1952267, 0.06178534, 3.5036547
1566315745219, 11.719921, 7.8532696, -8.363408, 2.3950195, 3.792592, -1.1408982, 0.05006743, 3.6165729
1566315745230, 12.011973, 8.281978, -8.396939, 2.2776637, 3.8657618, -1.091896, 0.035153728, 3.7081857
1566315745233, 12.398349, 8.698711, -8.581355, 2.1004322, 3.9359474, -1.0610034, 0.015978966, 3.790211
1566315745239, 12.82559, 9.201666, -8.746612, 1.8226099, 4.00241, -1.0365024, 0.013848438, 3.8658447
1566315745241, 13.365286, 9.77168, -8.966953, 1.6549586, 4.0665054, -1.0130665, -0.00958738, 3.9382827
1566315745250, 13.952478, 10.418335, -9.144185, 1.585503, 4.1230597, -0.99069595, -0.023435818, 4.0021987
1566315745252, 14.459075, 10.981165, -9.290281, 1.4729371, 4.1557484, -0.9534117, -0.027696876, 4.0448093
1566315745261, 15.092576, 11.491304, -9.656719, 1.575923, 4.2068124, -0.9076053, -0.025566347, 4.10766
1566315745263, 15.693418, 12.063714, -9.889036, 1.719624, 4.2244186, -0.8522116, -0.025566347, 4.137487
1566315745269, 16.161411, 12.561878, -9.996812, 1.8585353, 4.235527, -0.7850999, -0.034088463, 4.1619883
1566315745271, 16.542076, 13.004956, -10.020762, 2.0237916, 4.2622538, -0.7094661, -0.05219796, 4.2024684
1566315745279, 16.948723, 13.390554, -10.164463, 2.1531227, 4.25004, -0.62104917, -0.08628642, 4.2035336
1566315745281, 17.236017, 13.795313, -10.104588, 2.1603076, 4.2553797, -0.5400891, -0.1107875, 4.2195125
1566315745289, 17.40323, 13.95099, -10.142908, 2.315984, 4.234556, -0.45060685, -0.15126756, 4.2077947
1566315745297, 17.590633, 14.317428, -10.003997, 2.088457, 4.217122, -0.3717773, -0.19707392, 4.196077
1566315745303, 17.64486, 14.5856695, -9.72378, 2.0118165, 4.1768937, -0.2908172, -0.2396845, 4.1598577
1566315745304, 17.633715, 14.741345, -9.486672, 1.9088306, 4.1279197, -0.24181503, -0.28655612, 4.1108556
1566315745309, 17.672657, 14.944922, -9.266331, 1.7627344, 4.0511913, -0.18748654, -0.3334278, 4.033091
1566315745311, 17.624365, 15.083834, -8.959768, 1.6789087, 3.9840345, -0.14487597, -0.38456047, 3.9627838
1566315745320, 17.501926, 15.1484995, -8.641231, 1.4729371, 3.901315, -0.12676647, -0.43036684, 3.875432
1566315745322, 17.317825, 15.13413, -8.301138, 1.3986914, 3.8127792, -0.10652645, -0.46552056, 3.7827542
1566315745332, 17.004513, 14.980847, -7.941885, 1.2861255, 3.7287717, -0.101200126, -0.49534798, 3.6943371
1566315745334, 16.709543, 14.853911, -7.573052, 1.104104, 3.6204154, -0.096939065, -0.49854377, 3.584615
1566315745343, 16.316948, 14.60483, -7.201824, 1.0370435, 3.5382555, -0.10972224, -0.4889564, 3.5025895
1566315745345, 15.850739, 14.231207, -6.8976564, 1.0681788, 3.447763, -0.10972224, -0.47510794, 3.4131074
1566315745350, 15.259425, 13.831239, -6.334827, 1.1903248, 3.370703, -0.112918034, -0.45060685, 3.338539
1566315745352, 14.695343, 13.438456, -5.824688, 1.1975098, 3.2867696, -0.12250541, -0.40266997, 3.2597091
1566315745363, 14.182082, 13.033697, -5.4342995, 1.3124708, 3.2004418, -0.12676647, -0.3685815, 3.1766186
1566315745365, 13.777133, 12.758269, -4.981641, 1.4897022, 3.1266952, -0.11611383, -0.3270362, 3.1073763
1566315745371, 13.509893, 12.557088, -4.7157936, 1.6118482, 3.0485756, -0.10972224, -0.26631612, 3.0349383
1566315745373, 13.1687355, 12.315191, -4.311035, 1.7794995, 2.9585917, -0.09161274, -0.20985709, 2.9497173
1566315745381, 12.973303, 12.173884, -4.071533, 1.8776954, 2.8582096, -0.0628506, -0.14487597, 2.8538435
1566315745383, 12.856199, 12.090059, -3.8535867, 2.064507, 2.7610705, -0.026631612, -0.068176925, 2.7601001
1566315745390, 12.744754, 12.046948, -3.5829494, 2.1124072, 2.6485229, 0.014913702, 0.035153728, 2.6482475
1566315745392, 12.53247, 11.9056425, -3.297942, 2.1076174, 2.5444562, 0.07456851, 0.13848437, 2.5395904
1566315745401, 12.542427, 11.927197, -3.1183155, 2.308799, 2.4337695, 0.13315806, 0.2514024, 2.417085
1566315745403, 12.538041, 11.967913, -2.9338992, 2.315984, 2.3253927, 0.19068234, 0.36112466, 2.2892532
1566315745410, 12.466331, 11.896063, -2.9578493, 2.2680836, 2.2158027, 0.25353295, 0.46871635, 2.150769
1566315745412, 12.426972, 11.874507, -2.907554, 2.2297633, 2.1113644, 0.3057309, 0.5837649, 2.005893
1566315745420, 12.246501, 11.726016, -2.8452833, 2.0932472, 2.0151892, 0.35579833, 0.69774824, 1.856756
1566315745422, 12.224645, 11.757152, -2.816543, 1.8106349, 1.9400791, 0.39840892, 0.80107886, 1.7214674
1566315745430, 12.012726, 11.567945, -2.8476784, 1.5423926, 1.8781123, 0.4101268, 0.9033443, 1.5947009
1566315745433, 11.749704, 11.340418, -2.8452833, 1.1639795, 1.8425506, 0.44315, 1.0077401, 1.4775218
1566315745440, 11.394267, 10.985955, -2.9171338, 0.7927515, 1.7839673, 0.4293016, 1.0833739, 1.3507553
1566315745444, 11.132639, 10.708133, -2.9985645, 0.5292993, 1.7700018, 0.4101268, 1.1675298, 1.2655342
1566315745451, 10.906296, 10.461446, -3.0752053, 0.2203418, 1.7331201, 0.39095205, 1.2197278, 1.1675298
1566315745452, 10.758911, 10.289004, -3.1422658, 0.12933107, 1.7128793, 0.37284255, 1.2687299, 1.0887003
1566315745464, 10.533894, 10.054293, -3.1422658, -0.016765138, 1.6823069, 0.35260254, 1.2942963, 1.015197
1566315745466, 10.309514, 9.7621, -3.3147073, 0.014370117, 1.6739478, 0.32597092, 1.325189, 0.96939063
1566315745474, 10.05204, 9.479487, -3.3434474, -0.06466553, 1.6518189, 0.3110572, 1.3262542, 0.93423694
1566315745476, 9.786082, 9.148975, -3.4679885, -0.19160157, 1.6180613, 0.28122982, 1.3177321, 0.89588743
1566315745484, 9.643464, 8.957374, -3.5566041, -0.33530274, 1.5973276, 0.25672874, 1.3060142, 0.8831042
1566315745485, 9.565561, 8.801697, -3.7362306, -0.26584718, 1.567436, 0.23542345, 1.2857742, 0.86499476
1566315745491, 9.373068, 8.495134, -3.9350173, -0.45026368, 1.5466213, 0.20559604, 1.2559468, 0.8788432
1566315745493, 9.2005825, 8.281978, -3.9613624, -0.60594, 1.5042989, 0.17044231, 1.2026836, 0.8873653
1566315745502, 9.106121, 8.150251, -3.9924977, -0.7448511, 1.4880044, 0.14168017, 1.1664646, 0.9129316
1566315745503, 8.94292, 7.9634404, -3.999683, -0.7496411, 1.4603941, 0.10546118, 1.1121361, 0.9406285
1566315745517, 8.863344, 7.8820095, -3.9829175, -0.7544312, 1.4377838, 0.070307456, 1.0546118, 0.97471696
1566315745518, 8.708335, 7.711963, -4.0044727, -0.57001466, 1.4223933, 0.0479369, 0.98856544, 1.0215886
1566315745522, 8.667873, 7.680828, -3.9781277, -0.55803955, 1.3943372, 0.015978966, 0.9193232, 1.0482203
1566315745523, 8.66629, 7.7335186, -3.8799317, -0.49337405, 1.3819005, 0.002130529, 0.83729786, 1.099353
1566315745532, 8.674895, 7.664063, -4.045188, -0.3903882, 1.3506255, -0.015978966, 0.74248934, 1.128115
1566315745534, 8.624698, 7.704778, -3.8535867, -0.4143384, 1.3303046, -0.043675844, 0.6380934, 1.1664646
1566315745542, 8.732092, 7.7526784, -3.9853127, -0.5125342, 1.3137238, -0.07137272, 0.535828, 1.1973573
1566315745545, 9.014881, 8.008945, -4.1242237, -0.34009278, 1.2989786, -0.0958738, 0.43036684, 1.2218584
