TimeStamp(epoch),mAccelerometerMagnitude(m/s^2),mAccelerometerX(m/s^2),mAccelerometerY(m/s^2),mAccelerometerZ(m/s^2),mGyroscopeMagnitude(rad/s),mGyroscopeX(rad/s),mGyroscopeY(rad/s),mGyroscopeZ(rad/s) 
1566316798024, 8.887458, 1.2717555, 3.8751419, 7.89638, 0.8541927, 0.13102753, -0.76592517, 0.35473305
1566316798024, 8.819755, 1.4034815, 3.66438, 7.8987746, 0.80701363, 0.13528858, -0.7105314, 0.35792887
1566316798035, 8.830354, 1.5232325, 3.547024, 7.941885, 0.793755, 0.13102753, -0.69348717, 0.36325517
1566316798035, 8.868752, 1.4322218, 3.4584084, 8.040081, 0.78443116, 0.13635385, -0.67537767, 0.3749731
1566316798045, 8.84305, 1.3675562, 3.412903, 8.042476, 0.80445105, 0.14594123, -0.6828345, 0.39947417
1566316798046, 8.841506, 1.2957057, 3.4536183, 8.035291, 0.8175771, 0.1587244, -0.6860303, 0.41545314
1566316798056, 8.834128, 1.2885206, 3.3865578, 8.056846, 0.8678872, 0.17470337, -0.71479243, 0.46019423
1566316798057, 8.764009, 1.2669654, 3.290757, 8.023315, 0.92761296, 0.19813919, -0.7595336, 0.49428272
1566316798066, 8.434701, 1.099314, 3.3242872, 7.673643, 0.9936753, 0.21837921, -0.8085357, 0.53476274
1566316798067, 8.413794, 1.0777588, 3.2668068, 7.678433, 1.0655489, 0.23648871, -0.84688526, 0.6018744
1566316798076, 8.636898, 1.0250684, 3.3171022, 7.9083548, 1.1059794, 0.2876214, -0.829841, 0.67218184
1566316798076, 7.6344924, 1.1903248, 3.2260914, 6.816226, 1.1398728, 0.29827404, -0.8223842, 0.7307714
1566316798087, 8.489891, 1.6118482, 3.2380664, 7.680828, 1.159296, 0.34088463, -0.78083885, 0.7861652
1566316798087, 7.621331, 1.8800904, 3.0105398, 6.744375, 1.1577445, 0.3472762, -0.7275756, 0.8309063
1566316798096, 7.434154, 2.1076174, 3.0776002, 6.430628, 1.1458894, 0.3653857, -0.62317973, 0.88949585
1566316798097, 7.0100746, 2.0213966, 2.7638526, 6.11688, 1.1328951, 0.37284255, -0.45699844, 0.9672601
1566316798106, 5.746363, 2.1076174, 2.2896388, 4.8307548, 1.1469223, 0.36112466, -0.27803403, 1.0524813
1566316798106, 6.0612574, 2.1076174, 2.0812721, 5.2882032, 1.1760048, 0.34194988, -0.07350325, 1.1227888
1566316798116, 4.3676443, 2.0309765, 1.705254, 3.4703834, 1.2374629, 0.3057309, 0.082025364, 1.196292
1566316798117, 5.034152, 2.0261867, 1.7675245, 4.25595, 1.3157586, 0.27057716, 0.23755397, 1.2655342
1566316798126, 3.7375116, 1.695674, 1.707649, 2.8596535, 1.3556151, 0.21092236, 0.3270362, 1.2985574
1566316798126, 3.9591835, 1.6405884, 1.8896705, 3.06802, 1.4123309, 0.15765914, 0.36964676, 1.3539511
1566316798136, 3.6513622, 1.3555812, 2.0261867, 2.7183473, 1.4397702, 0.07456851, 0.35899413, 1.3923006
1566316798137, 3.2139068, 1.3028907, 2.2106032, 1.9351759, 1.4751216, 0.01917476, 0.27696875, 1.4487597
1566316798147, 3.8508258, 1.3795313, 2.2848487, 2.7758276, 1.514598, -0.034088463, 0.18322548, 1.5030881
1566316798148, 3.2310846, 1.6142433, 2.191443, 1.7411792, 1.5568051, -0.082025364, -0.036218993, 1.5542208
1566316798157, 4.6429133, 1.8633252, 2.2489235, 3.6092947, 1.6460474, -0.08948222, -0.33768883, 1.6085494
1566316798157, 3.796067, 1.4250367, 1.6477735, 3.1087356, 1.8493878, -0.10226539, -0.7595336, 1.6831179
1566316798168, 5.0476623, 2.4788454, 2.0094216, 3.911067, 2.0822108, -0.11504856, -1.1920309, 1.7033578
1566316798168, 4.915705, 3.4440382, 1.9112257, 2.9410841, 2.3193412, -0.15233281, -1.6085494, 1.663943
1566316798177, 5.075294, 4.0787187, 1.8920655, 2.3543043, 2.5636635, -0.20559604, -1.9760655, 1.6202673
1566316798177, 5.220187, 4.5768824, 1.8154249, 1.7339942, 2.8029037, -0.25885928, -2.3094933, 1.567004
1566316798187, 5.407465, 5.024751, 1.5352076, 1.2789404, 3.024555, -0.36112466, -2.6045716, 1.4945661
1566316798188, 5.4833465, 5.3313136, 1.219065, 0.39757326, 3.1965826, -0.4878911, -2.8133633, 1.4370418
1566316798198, 5.428236, 5.343289, 0.79993653, -0.5245093, 3.336299, -0.6508766, -2.9656963, 1.3827133
1566316798198, 5.5101566, 5.3313136, 0.6322852, -1.2406201, 3.4196641, -0.84581995, -3.0274816, 1.3464943
1566316798208, 5.6358414, 5.3169436, 0.48139894, -1.8058448, 3.4830012, -1.0226538, -3.0562437, 1.320928
1566316798208, 5.3561263, 5.096602, 0.26105714, -1.6262183, 3.5437624, -1.1835088, -3.077549, 1.2985574
1566316798218, 5.542979, 5.3792143, 0.38320315, -1.2813355, 3.5488582, -1.3358417, -3.029612, 1.2772521
1566316798219, 5.2823825, 5.2187476, -0.14370118, -0.8047266, 3.5924125, -1.4775218, -3.0083067, 1.293231
1566316798228, 5.10703, 5.0439115, -0.66342044, -0.44786867, 3.7089398, -1.6074841, -3.0754185, 1.3092101
1566316798229, 5.3619933, 5.254673, -1.0418335, -0.23231691, 3.8140113, -1.7204021, -3.137204, 1.320928
1566316798238, 5.3238792, 5.039121, -1.7172291, 0.045505375, 3.9463108, -1.7917749, -3.2373388, 1.3720607
1566316798239, 5.178611, 4.653523, -2.1507277, 0.732876, 4.109084, -1.8269285, -3.3907368, 1.4317155
1566316798249, 4.9757586, 4.4259963, -2.0812721, 0.9148975, 4.278285, -1.8695391, -3.5452, 1.4966966
1566316798249, 4.8511, 4.248765, -2.0285816, 1.1687696, 4.459624, -1.901497, -3.7007287, 1.6053536
1566316798258, 4.658408, 3.9350173, -2.2585034, 1.0562036, 4.647713, -1.9238676, -3.8647795, 1.7214674
1566316798259, 4.859988, 3.8895118, -2.7063723, 1.0801538, 4.8403473, -1.9611518, -4.0139165, 1.8631475
1566316798269, 5.3066363, 4.0930886, -3.3482375, 0.44307864, 5.0025635, -2.0133498, -4.121508, 1.9963056
1566316798269, 5.850094, 4.28469, -3.9685476, 0.34009278, 5.140241, -2.0548952, -4.221643, 2.0921793
1566316798279, 6.259002, 4.5720925, -4.160149, 0.98195803, 5.2790017, -2.091114, -4.3121905, 2.2136195
1566316798279, 6.7489767, 5.101392, -4.4116263, -0.24908204, 5.490968, -2.1081583, -4.5103297, 2.3158848
1566316798289, 7.538723, 5.6714063, -4.5720925, 1.9399658, 5.694746, -2.107093, -4.713795, 2.4021714
1566316798289, 7.870433, 5.7863674, -5.333709, 0.11496094, 6.0034747, -2.107093, -5.0355053, 2.4991105
1566316798299, 8.107644, 5.633086, -5.5444703, 1.8058448, 6.316055, -2.0857878, -5.366802, 2.5960495
1566316798300, 7.9502783, 5.261858, -5.870193, 1.0298585, 6.689684, -2.0687435, -5.7364492, 2.7505128
1566316798309, 7.870283, 4.9481106, -5.927674, 1.5232325, 7.0553627, -2.0271983, -6.0837255, 2.9422605
1566316798309, 8.038915, 4.639153, -6.3803325, 1.5471827, 7.341465, -2.0240026, -6.320214, 3.1393344
1566316798319, 8.664008, 5.0343313, -7.0509377, -0.06945557, 7.602724, -2.0463731, -6.5172877, 3.3374736
1566316798320, 9.576126, 5.4510646, -7.795789, 1.101709, 7.779352, -2.07407, -6.6163573, 3.5270905
1566316798330, 10.35623, 5.704937, -8.581355, -1.0322535, 7.93921, -2.111354, -6.681339, 3.7326868
1566316798330, 10.871504, 6.090535, -8.983719, 0.6227051, 8.04507, -2.1230721, -6.6856, 3.939348
1566316798339, 11.455581, 6.0833497, -9.685459, -0.6442603, 8.159708, -2.1560953, -6.6717515, 4.173706
1566316798340, 11.979695, 6.2342362, -10.214759, 0.55324954, 8.274486, -2.1358552, -6.66749, 4.410195
1566316798351, 12.257462, 6.071375, -10.619517, 0.7807764, 8.417784, -2.1241374, -6.6877303, 4.6498795
1566316798351, 12.889107, 6.3084817, -11.2302475, 0.4622388, 8.60917, -2.0921793, -6.7537766, 4.9119344
1566316798362, 13.302545, 6.248606, -11.637401, 1.575923, 8.846439, -2.0612867, -6.860303, 5.191034
1566316798362, 14.15828, 6.4138627, -12.621754, 0.102985844, 9.137302, -2.0197413, -7.0190277, 5.490373
1566316798369, 15.064578, 6.825806, -13.299544, 1.8633252, 9.40248, -1.953695, -7.1436634, 5.792908
1566316798369, 16.102669, 7.407796, -14.295872, 0.2203418, 9.681175, -1.8801918, -7.273626, 6.106096
1566316798377, 17.288906, 8.353828, -15.110179, 0.89573735, 9.869888, -1.788579, -7.330085, 6.3628244
1566316798378, 18.629599, 9.405242, -16.061, 0.8047266, 9.989763, -1.6788567, -7.314106, 6.593987
1566316798390, 19.684368, 10.32014, -16.755558, 0.46942386, 10.034583, -1.6000272, -7.2161016, 6.7868
1566316798391, 20.757078, 11.287727, -17.418978, 0.15088624, 10.016051, -1.526524, -7.0701604, 6.92848
1566316798400, 21.750027, 12.231365, -17.984203, -0.16046631, 9.977944, -1.4636734, -6.8869348, 7.0701604
1566316798401, 22.6595, 12.87802, -18.635647, -0.5676197, 9.884392, -1.4221281, -6.630206, 7.1916003
1566316798411, 23.535297, 13.495935, -19.270329, -0.6514453, 9.75, -1.3837786, -6.3191485, 7.294931
1566316798411, 24.338007, 14.180911, -19.778072, -0.26105714, 9.578322, -1.3187973, -5.977199, 7.367369
1566316798420, 24.998503, 14.913787, -20.055895, 0.51492923, 9.37926, -1.2144015, -5.6608152, 7.379087
1566316798421, 25.677967, 15.732884, -20.23073, 1.5974782, 9.16981, -1.0769824, -5.3391056, 7.3769565
1566316798431, 26.190495, 16.429834, -20.249891, 2.43813, 8.947761, -0.9129316, -5.041897, 7.335411
1566316798431, 26.76402, 17.167501, -20.293001, 3.1278956, 8.700643, -0.72970617, -4.726578, 7.2682996
1566316798441, 27.44059, 17.957857, -20.381617, 3.8847218, 8.439706, -0.5187838, -4.4038033, 7.180948
1566316798441, 27.288452, 17.993782, -19.907404, 4.9576907, 8.2058525, -0.27164245, -4.095942, 7.105314
1566316798451, 27.723763, 18.537453, -19.960094, 5.1540823, 7.956497, -0.03089267, -3.8040593, 6.988135
1566316798451, 28.376919, 19.222427, -20.084635, 5.688172, 7.6910353, 0.22583607, -3.5175033, 6.835802
1566316798461, 28.840967, 19.852318, -20.04871, 5.977969, 7.452652, 0.48469532, -3.270362, 6.6792083
1566316798462, 28.806627, 20.192411, -19.59126, 6.1863356, 7.2036934, 0.75420725, -3.0072415, 6.502374
1566316798471, 28.59816, 20.266657, -19.148182, 6.361172, 6.9669757, 1.026915, -2.7579696, 6.3148875
1566316798471, 28.261864, 20.26905, -18.499132, 6.758745, 6.7720375, 1.2942963, -2.5204158, 6.150837
1566316798481, 27.364092, 19.933748, -17.62495, 6.3875175, 6.591863, 1.5425029, -2.295645, 5.9835906
1566316798483, 26.77906, 19.629581, -17.03338, 6.454578, 6.45656, 1.808819, -2.082592, 5.8376493
1566316798491, 26.357634, 19.5242, -16.310083, 6.8928666, 6.310123, 2.0367856, -1.8620822, 5.6746635
1566316798491, 25.82658, 19.66311, -15.847845, 5.4055595, 6.181752, 2.2647521, -1.7182716, 5.489308
1566316798503, 26.078133, 19.845133, -15.445481, 6.9048414, 6.040687, 2.4884577, -1.5499598, 5.2815814
1566316798504, 25.495543, 19.921774, -15.031143, 5.216353, 5.9084625, 2.7217507, -1.4125407, 5.050419
1566316798512, 25.590118, 20.027155, -14.425203, 6.758745, 5.7940927, 2.961435, -1.2676647, 4.8160605
1566316798512, 24.809433, 19.818787, -13.876743, 5.49178, 5.6948752, 3.1808796, -1.1664646, 4.577441
1566316798521, 24.549576, 19.785257, -13.227694, 6.0210795, 5.626859, 3.4248252, -1.0823087, 4.331365
1566316798522, 24.113781, 19.56731, -12.83012, 5.829478, 5.5733905, 3.6730318, -0.98430437, 4.0746365
1566316798532, 23.810333, 19.564915, -12.607384, 5.0199614, 5.5431833, 3.9159122, -0.92997587, 3.8115163
1566316798532, 23.97833, 19.562521, -12.504397, 5.992339, 5.5243406, 4.165184, -0.87564737, 3.5217643
1566316798541, 23.418394, 19.406843, -12.430152, 4.157754, 5.50887, 4.393151, -0.8948221, 3.2011197
1566316798542, 23.126825, 19.006876, -12.183465, 5.015171, 5.4959273, 4.5827675, -0.88843054, 2.900715
1566316798552, 21.939974, 18.180593, -12.022999, 2.5051906, 5.4655585, 4.708469, -0.9321064, 2.6141589
1566316798552, 21.140526, 17.409397, -11.773916, 2.2824538, 5.4334593, 4.7990165, -0.96406436, 2.3584955
1566316798562, 19.886364, 16.149618, -11.591895, 0.5340894, 5.3542333, 4.808604, -0.9800433, 2.1411815
1566316798562, 18.924416, 14.937737, -11.55597, -1.2070899, 5.246572, 4.765993, -1.0098706, 1.9473034
1566316798572, 17.77612, 13.515096, -11.378738, -1.9639161, 5.0817795, 4.6456184, -0.9715212, 1.816276
1566316798572, 17.074339, 12.291241, -11.108101, -4.1314087, 4.8703394, 4.4602623, -0.9406285, 1.7150757
1566316798582, 16.559633, 11.292518, -10.861414, -5.360054, 4.608577, 4.222708, -0.8607337, 1.6330504
1566316798583, 16.160273, 10.418335, -10.483001, -6.5360084, 4.313354, 3.9414785, -0.7350325, 1.5904398
1566316798593, 15.813131, 9.910591, -10.008787, -7.1874537, 4.001243, 3.641074, -0.61891866, 1.5393071
1566316798593, 15.581605, 9.711804, -9.503438, -7.6257424, 3.6522017, 3.303385, -0.46339005, 1.4871092
1566316798604, 15.527863, 9.7621, -9.079519, -7.9610453, 3.3107026, 2.9795446, -0.3206446, 1.4072144
1566316798605, 15.615065, 10.008787, -8.897498, -8.0305, 2.9580762, 2.6429212, -0.19281286, 1.3145363
1566316798613, 15.694463, 10.145303, -8.940608, -7.965835, 2.5964787, 2.3020365, -0.05965481, 1.1994878
1566316798614, 15.574233, 10.054293, -8.756192, -8.049661, 2.24173, 1.9600866, 0.07137272, 1.0855045
1566316798624, 15.221576, 10.015972, -8.55501, -7.6281376, 1.9049994, 1.6447684, 0.16405073, 0.9470201
1566316798624, 14.305744, 8.978929, -8.696317, -6.957532, 1.6050669, 1.3496901, 0.20240025, 0.8447547
1566316798633, 13.646062, 9.206455, -7.807764, -6.3635674, 1.324368, 1.0897655, 0.24181503, 0.7126619
1566316798634, 13.140225, 9.536968, -6.940767, -5.7911572, 1.0873966, 0.8863, 0.3153183, 0.5454154
1566316798643, 12.775694, 9.821976, -6.588699, -4.8307548, 0.86621785, 0.7190535, 0.3323625, 0.350472
1566316798644, 12.921108, 10.322535, -6.792276, -3.776946, 0.68818885, 0.6018744, 0.30360037, 0.13848437
1566316798653, 12.770184, 10.289004, -7.2808595, -2.0501368, 0.637184, 0.57417756, 0.2695119, -0.060720075
1566316798654, 12.06636, 9.474698, -7.443721, -0.6466553, 0.6851721, 0.58056915, 0.27377295, -0.2396845
1566316798663, 11.471425, 8.641231, -7.534732, -0.3879932, 0.73826206, 0.57311225, 0.28549087, -0.36751625
1566316798664, 10.989414, 7.9083548, -7.537127, -1.1903248, 0.7974904, 0.5400891, 0.35579833, -0.46658584
1566316798673, 10.665953, 7.2904396, -7.479646, -2.1603076, 0.8312108, 0.44101948, 0.44208476, -0.5486112
1566316798674, 10.084222, 6.6246243, -7.335945, -1.9974464, 0.89916587, 0.31851408, 0.58056915, -0.608266
1566316798684, 10.383573, 5.9037232, -7.3000197, -4.4355764, 0.9595189, 0.16831179, 0.67537767, -0.660464
1566316798685, 9.522899, 5.407954, -7.1371584, -3.2404616, 1.084819, 0.00958738, 0.83942837, -0.6870956
1566316798694, 9.946166, 4.9433208, -7.168294, -4.806804, 1.2400428, -0.19600865, 1.0098706, -0.6924219
1566316798695, 9.953605, 4.7972245, -7.220984, -4.8906302, 1.4623827, -0.38562572, 1.2229236, -0.7030745
1566316798704, 9.812711, 4.5481424, -7.31439, -4.7014236, 1.7366186, -0.5997439, 1.4562165, -0.7318367
1566316798705, 10.507244, 4.6583133, -7.544312, -5.637876, 1.9735792, -0.8000136, 1.639442, -0.753142
1566316798714, 9.878409, 4.87626, -7.6281376, -3.9517825, 2.2457373, -0.9779128, 1.8556907, -0.8021441
1566316798715, 10.637688, 4.91937, -7.829319, -5.2594633, 2.4456332, -1.1323761, 1.9963056, -0.8447547
1566316798725, 9.708099, 4.8307548, -7.8652444, -3.0081446, 2.6274946, -1.2389026, 2.1443772, -0.87777793
1566316798726, 10.05161, 4.4691067, -8.198153, -3.7218604, 2.7591534, -1.325189, 2.2434468, -0.9076053
1566316798734, 9.682965, 4.404441, -8.320298, -2.2656887, 2.8376267, -1.3624732, 2.3062975, -0.93636745
1566316798734, 9.507867, 3.999683, -8.404124, -1.9423609, 2.8909705, -1.3986923, 2.343582, -0.9534117
1566316798745, 9.599948, 3.9637575, -8.51669, -1.9782863, 2.8829563, -1.3997575, 2.328668, -0.96406436
1566316798746, 9.335488, 3.7601807, -8.52148, -0.62989014, 2.8696306, -1.406149, 2.312689, -0.9534117
1566316798755, 9.704145, 3.537444, -8.830438, -1.9184108, 2.8149064, -1.3986923, 2.25623, -0.93636745
1566316798755, 9.488273, 3.5134938, -8.813672, 0.043110352, 2.7490509, -1.361408, 2.1997712, -0.92997587
1566316798765, 9.638613, 3.1949563, -9.0076685, -1.2478052, 2.6593144, -1.3454291, 2.1038973, -0.9139969
1566316798766, 9.535166, 3.290757, -8.947793, 0.16525635, 2.548334, -1.2985574, 2.0069582, -0.8831042
1566316798775, 9.530467, 3.3314724, -8.928633, -0.102985844, 2.425245, -1.2580773, 1.8833876, -0.8671253
1566316798776, 9.544074, 3.5949244, -8.840017, 0.14130616, 2.3157244, -1.216532, 1.768339, -0.8692558
1566316798785, 9.691208, 3.7074904, -8.950189, 0.26105714, 2.1987653, -1.160073, 1.6543556, -0.8671253
1566316798786, 9.790074, 4.0044727, -8.919053, 0.51013917, 2.0844028, -1.1206582, 1.5329156, -0.85966843
1566316798792, 9.989763, 4.126619, -9.06994, 0.7089258, 1.952223, -1.0641992, 1.3827133, -0.87564737
1566316798793, 10.201815, 4.3469605, -9.196876, 0.77359134, 1.8140881, -0.9938917, 1.2186625, -0.9044095
1566316798802, 10.409558, 4.5744877, -9.321417, 0.7376661, 1.6934506, -0.96086854, 1.0333065, -0.93636745
1566316798802, 10.404176, 4.7972245, -9.216036, 0.5460645, 1.6014897, -0.92997587, 0.87777793, -0.96406436
1566316798812, 10.534137, 4.773274, -9.386082, 0.2921924, 1.5202694, -0.8990832, 0.7392935, -0.9779128
1566316798812, 10.714359, 4.5936475, -9.6758795, 0.2706372, 1.466162, -0.88843054, 0.61891866, -0.98856544
1566316798822, 10.723777, 4.378096, -9.788445, 0.1341211, 1.4341617, -0.8724516, 0.5251754, -1.0098706
1566316798823, 10.80062, 4.2751102, -9.915381, 0.24908204, 1.3634744, -0.8447547, 0.43249738, -0.97897804
1566316798832, 10.878433, 4.1146436, -10.059082, 0.4742139, 1.2971518, -0.8085357, 0.32810146, -0.9598033
1566316798833, 11.033326, 4.1984696, -10.181229, 0.6706055, 1.2437974, -0.76912093, 0.25033715, -0.94488955
1566316798842, 11.051671, 4.1553593, -10.212363, 0.76161623, 1.2028214, -0.7392935, 0.17150758, -0.9331717
1566316798843, 11.005323, 4.102669, -10.164463, 0.98435307, 1.155231, -0.6828345, 0.10652645, -0.9257148
1566316798852, 11.091237, 4.138594, -10.236314, 1.0514137, 1.0953457, -0.61891866, 0.051132694, -0.902279
1566316798853, 11.117155, 3.8176613, -10.37762, 1.1496094, 1.0562471, -0.58269966, 0.002130529, -0.8809737
1566316798862, 11.100557, 3.7482057, -10.389595, 1.1088941, 1.0008101, -0.53795856, -0.020240024, -0.84368944
1566316798862, 11.144456, 3.8008962, -10.425521, 1.0298585, 0.96012604, -0.49534798, -0.043675844, -0.8213189
1566316798873, 11.099521, 3.7362306, -10.403965, 0.9987232, 0.9632365, -0.48682585, -0.07563378, -0.8277105
1566316798874, 11.164914, 3.8823268, -10.427916, 0.91729254, 0.96751, -0.4857606, -0.12250541, -0.8277105
1566316798883, 11.104739, 4.0667434, -10.310559, 0.6849756, 0.9886148, -0.49321744, -0.16085494, -0.84155893
1566316798884, 11.279389, 4.1793094, -10.468631, 0.40715334, 1.0368006, -0.5251754, -0.2130529, -0.8681905
1566316798893, 11.348734, 4.287085, -10.506951, 0.13651612, 1.0910809, -0.56459016, -0.24394555, -0.9012137
1566316798893, 11.437197, 4.3637257, -10.571617, -0.09101075, 1.1448164, -0.6135923, -0.27057716, -0.92784536
1566316798902, 11.625145, 4.351751, -10.775193, -0.31853762, 1.203043, -0.6785734, -0.27164245, -0.9555422
1566316798903, 11.691457, 4.0882983, -10.94524, -0.42152345, 1.2458248, -0.7392935, -0.25246766, -0.97045594
1566316798913, 11.885324, 4.038003, -11.167976, -0.48139894, 1.2743119, -0.7946873, -0.20559604, -0.97471696
1566316798913, 12.091967, 3.7266505, -11.493699, -0.47181886, 1.3082298, -0.86499476, -0.15339808, -0.96939063
1566316798923, 12.096447, 3.4416432, -11.587105, -0.46702883, 1.3196597, -0.9129316, -0.0958738, -0.94808537
1566316798923, 11.868041, 3.0033545, -11.481724, -0.016765138, 1.2990025, -0.9289106, -0.068176925, -0.9054748
1566316798933, 11.668348, 2.5962012, -11.359578, 0.60833496, 1.2744539, -0.9598033, -0.22583607, -0.80747044
1566316798934, 12.012646, 0.8933423, -11.972703, 0.39996827, 1.2268753, -0.9534117, -0.2759035, -0.721184
1566316798943, 10.88891, 1.3388159, -10.782378, 0.7185059, 1.1845267, -0.9491506, -0.2876214, -0.64768076
1566316798944, 10.082329, 1.3555812, -9.934542, 1.0585986, 1.1272813, -0.9289106, -0.26844665, -0.5795039
1566316798953, 9.753668, 1.6334034, -9.393267, 2.0573218, 1.0256748, -0.8383631, -0.29614353, -0.5113269
1566316798954, 9.741298, 1.7723145, -9.129815, 2.8979738, 0.9373879, -0.7126619, -0.36005938, -0.4910869
1566316798963, 10.092371, 2.0621119, -9.24717, 3.4775686, 0.8336918, -0.5613944, -0.4111921, -0.45912898
1566316798964, 10.223819, 2.198628, -9.287886, 3.66438, 0.7696792, -0.4048005, -0.45699844, -0.46871635
1566316798973, 10.357733, 2.454895, -9.297466, 3.8487966, 0.72429997, -0.22690132, -0.49534798, -0.47723848
1566316798974, 10.240947, 2.5459058, -9.15137, 3.8272414, 0.71835953, -0.0777643, -0.52837116, -0.48043427
1566316798983, 9.920392, 2.663262, -8.873548, 3.547024, 0.7591898, 0.06924219, -0.56459016, -0.5028048
1566316798984, 9.671363, 2.567461, -8.763377, 3.1853762, 0.8073369, 0.20559604, -0.58056915, -0.5219796
1566316798993, 9.516127, 2.6249416, -8.765772, 2.6129665, 0.84868956, 0.28975195, -0.59761333, -0.52837116
1566316798994, 9.454537, 2.668052, -8.820857, 2.1124072, 0.91868114, 0.3749731, -0.6306366, -0.55287224
1566316799003, 9.587388, 2.7542725, -9.024434, 1.7004639, 0.9680869, 0.42184472, -0.65726817, -0.572047
1566316799004, 9.622314, 2.8979738, -9.11784, 1.0274634, 1.0112795, 0.44741106, -0.6849651, -0.5944176
1566316799014, 9.902694, 3.0752053, -9.393267, 0.61073, 1.0490979, 0.44528055, -0.716923, -0.62317973
1566316799014, 10.114094, 3.3123121, -9.5561285, 0.06227051, 1.0786679, 0.41864893, -0.73822826, -0.66579026
1566316799024, 10.379839, 3.6452198, -9.711804, -0.366438, 1.0961815, 0.3685815, -0.7499462, -0.7094661
1566316799025, 10.606311, 3.8344264, -9.860296, -0.75203615, 1.1149212, 0.30146983, -0.7595336, -0.7584683
1566316799034, 10.852536, 4.0763235, -10.015972, -0.91729254, 1.1403923, 0.23222765, -0.7755125, -0.8032094
1566316799035, 10.91064, 4.253555, -9.970467, -1.2406201, 1.1732664, 0.14594123, -0.7861652, -0.8586032
1566316799044, 10.915385, 4.24637, -9.970467, -1.3052857, 1.1975875, 0.0479369, -0.78723043, -0.9012137
1566316799045, 11.132032, 4.296665, -10.174044, -1.3962965, 1.2189596, -0.054328486, -0.7861652, -0.92997587
1566316799054, 11.177064, 4.1984696, -10.2387085, -1.5711329, 1.2272161, -0.16192019, -0.76485986, -0.94595486
1566316799055, 11.246927, 4.1218286, -10.324929, -1.7028589, 1.2479231, -0.2908172, -0.73290193, -0.9672601
1566316799064, 11.225105, 3.9853127, -10.3872, -1.4920973, 1.2524204, -0.37710363, -0.70200926, -0.96619487
1566316799065, 10.87247, 3.7266505, -10.193204, -0.6490503, 1.2574426, -0.44421527, -0.69348717, -0.9502159
1566316799074, 10.342808, 3.2404616, -9.821976, 0.043110352, 1.2790225, -0.5070659, -0.7318367, -0.91825795
1566316799075, 10.11837, 3.2404616, -9.584868, 0.10538086, 1.311948, -0.567786, -0.773382, -0.8948221
1566316799084, 10.078952, 3.288362, -9.524993, 0.21555176, 1.3121092, -0.61678815, -0.77125144, -0.86392945
1566316799085, 10.107741, 3.2572267, -9.5633135, 0.3161426, 1.3110117, -0.6530071, -0.77125144, -0.83516735
1566316799098, 9.964819, 3.173401, -9.422008, 0.6730005, 1.2885025, -0.6711166, -0.7637946, -0.7914915
1566316799099, 9.966401, 3.0225148, -9.417217, 1.2286451, 1.2552947, -0.67218184, -0.7680557, -0.7307714
1566316799105, 10.013873, 2.9913795, -9.4435625, 1.465752, 1.2194399, -0.6785734, -0.7552725, -0.67537767
1566316799106, 10.112668, 3.0752053, -9.493857, 1.6357985, 1.1498947, -0.6679208, -0.7105314, -0.60933125
1566316799115, 10.246246, 3.1542408, -9.584868, 1.7794995, 1.0690697, -0.6498113, -0.6348976, -0.5635249
1566316799116, 10.245863, 3.307522, -9.477093, 2.0549269, 0.9770804, -0.6178534, -0.5571333, -0.5123922
1566316799125, 10.303422, 3.4560134, -9.424402, 2.323169, 0.8715673, -0.5699165, -0.48043427, -0.45167214
1566316799126, 10.316677, 3.547024, -9.333391, 2.5962012, 0.792667, -0.5209143, -0.4133226, -0.4314321
1566316799135, 10.376371, 3.7098854, -9.244776, 2.9051588, 0.68786806, -0.44528055, -0.33449304, -0.40373522
1566316799136, 10.41498, 3.8727467, -9.14658, 3.1326857, 0.5949948, -0.35579833, -0.2790993, -0.386691
1566316799145, 10.384049, 3.8679566, -9.036409, 3.3482375, 0.5211016, -0.28655612, -0.21731395, -0.37710363
1566316799146, 10.473617, 4.1314087, -9.036409, 3.3123121, 0.44749475, -0.19600865, -0.1587244, -0.36964676
1566316799156, 10.5253725, 4.2367897, -9.045989, 3.3171022, 0.41140866, -0.11717909, -0.10439592, -0.38029942
1566316799157, 10.540205, 4.423601, -9.110655, 2.919529, 0.38283625, -0.05219796, -0.02876214, -0.37816888
1566316799166, 10.619041, 4.497847, -9.254355, 2.6249416, 0.38832214, 0.0053263223, 0.035153728, -0.386691
1566316799166, 10.536324, 4.5553274, -9.19448, 2.3926246, 0.40336546, 0.054328486, 0.096939065, -0.38775626
1566316799176, 10.619879, 4.493057, -9.354947, 2.2537134, 0.44482288, 0.10546118, 0.15126756, -0.4048005
1566316799176, 10.552913, 4.488267, -9.292676, 2.2058132, 0.46093962, 0.14061491, 0.18429075, -0.39840892
1566316799185, 10.583438, 4.4259963, -9.436378, 1.8369801, 0.47616488, 0.16937704, 0.21837921, -0.38775626
1566316799187, 10.523532, 4.160149, -9.539363, 1.5615528, 0.47160667, 0.18855181, 0.24394555, -0.3568636
1566316799196, 10.400695, 3.908672, -9.536968, 1.3939015, 0.47789904, 0.2066613, 0.26631612, -0.3387541
1566316799197, 10.196121, 3.7362306, -9.407638, 1.223855, 0.46522185, 0.21731395, 0.28549087, -0.29614353
1566316799206, 10.007646, 3.6021094, -9.292676, 0.90771246, 0.4489758, 0.20879184, 0.30253512, -0.257794
1566316799207, 9.840523, 3.5039136, -9.16574, 0.74006104, 0.42250058, 0.20026971, 0.30040458, -0.21944448
1566316799216, 9.703109, 3.4895437, -9.029224, 0.6682105, 0.391693, 0.1917476, 0.28549087, -0.18748654
1566316799217, 9.597299, 3.5134938, -8.909473, 0.62031007, 0.35422727, 0.1736381, 0.26418558, -0.15978967
1566316799232, 9.423807, 3.5134938, -8.732242, 0.45984375, 0.3115038, 0.15233281, 0.23861924, -0.12996227
1566316799233, 9.395499, 3.652405, -8.653206, 0.23950197, 0.27262446, 0.12357068, 0.21518342, -0.112918034
1566316799240, 9.433972, 3.7074904, -8.672366, 0.21076173, 0.22283132, 0.0958738, 0.1768339, -0.0958738
1566316799241, 9.4701395, 3.9733377, -8.595725, 0.098195806, 0.18473664, 0.07243799, 0.1438107, -0.09054748
1566316799252, 9.537206, 4.1098537, -8.605306, 0.12693603, 0.15278655, 0.03089267, 0.113983296, -0.096939065
1566316799253, 9.700135, 4.3062453, -8.691526, 0.07903565, 0.13494003, 0.0053263223, 0.094808534, -0.0958738
1566316799256, 9.6465025, 4.3206153, -8.624466, 0.07664063, 0.12718205, -0.024501082, 0.07989483, -0.0958738
1566316799257, 9.7112055, 4.4499464, -8.629255, 0.20357667, 0.13751817, -0.036218993, 0.07456851, -0.10972224
1566316799267, 9.639207, 4.3301954, -8.605306, 0.33530274, 0.12269054, -0.033023197, 0.051132694, -0.10652645
1566316799267, 9.579373, 4.184099, -8.610096, 0.3520679, 0.1034459, -0.03195793, 0.033023197, -0.09267801
1566316799278, 9.402162, 4.0882983, -8.454419, 0.45744875, 0.066772625, -0.023435818, 0.014913702, -0.060720075
1566316799278, 9.384012, 3.915857, -8.509504, 0.5604346, 0.04600413, -0.015978966, -0.023435818, -0.036218993
1566316799287, 9.349518, 3.9541774, -8.456815, 0.51013917, 0.0579958, -0.008522116, -0.053263225, -0.02130529
1566316799288, 9.474479, 4.030818, -8.5502205, 0.64186525, 0.08602959, 0.011717909, -0.08522116, 0.0010652645
1566316799300, 9.609894, 4.2248144, -8.605306, 0.6706055, 0.13200256, 0.037284255, -0.12463594, 0.022370555
1566316799301, 9.637602, 4.29427, -8.612491, 0.51732427, 0.16497847, 0.05539375, -0.14913702, 0.043675844
1566316799307, 9.752251, 4.497847, -8.641231, 0.4526587, 0.19529235, 0.066046394, -0.1768339, 0.05006743
1566316799308, 9.826152, 4.744534, -8.595725, 0.39517823, 0.22774996, 0.082025364, -0.20453078, 0.05752428
1566316799318, 9.968891, 4.9241605, -8.660391, 0.35925296, 0.23478873, 0.08948222, -0.2034655, 0.07563378
1566316799319, 10.022127, 4.960086, -8.703502, 0.29937744, 0.24458203, 0.096939065, -0.20985709, 0.07989483
1566316799332, 10.003329, 5.000801, -8.660391, 0.23710695, 0.25477865, 0.101200126, -0.21731395, 0.08628642
1566316799332, 9.977628, 4.9624805, -8.655601, 0.086220704, 0.26048928, 0.094808534, -0.22050974, 0.101200126
1566316799342, 10.030522, 5.029541, -8.677156, 0.14849122, 0.27184913, 0.08735169, -0.23435818, 0.10652645
1566316799342, 10.114431, 4.974456, -8.806487, -0.047900394, 0.2769237, 0.08522116, -0.23755397, 0.113983296
1566316799354, 10.030807, 5.130132, -8.619676, 0.0023950196, 0.2882638, 0.07350325, -0.24714136, 0.128897
1566316799354, 10.073797, 5.221143, -8.614885, -0.06945557, 0.29533964, 0.05752428, -0.2609898, 0.1257012
1566316799358, 10.224341, 5.384004, -8.691526, -0.083825685, 0.30210343, 0.058589544, -0.26738137, 0.12783173
1566316799359, 10.351166, 5.5636306, -8.727451, -0.15567628, 0.30364522, 0.04580637, -0.26631612, 0.13848437
1566316799368, 10.3741255, 5.5708156, -8.751402, -0.038320314, 0.2867145, 0.036218993, -0.25353295, 0.128897
1566316799369, 10.383417, 5.6570363, -8.705896, -0.14370118, 0.2756628, 0.0127831735, -0.24714136, 0.12144015
1566316799380, 10.39518, 5.8055277, -8.62207, -0.12454102, 0.26761258, -0.0031957934, -0.24501082, 0.10759171
1566316799381, 10.391753, 5.7863674, -8.629255, -0.20597169, 0.26349312, -0.020240024, -0.24501082, 0.094808534
1566316799391, 10.474126, 5.9707837, -8.600515, -0.29698244, 0.23247673, -0.041545313, -0.21731395, 0.07137272
1566316799392, 10.547681, 5.992339, -8.674761, -0.3065625, 0.1992073, -0.058589544, -0.17896444, 0.06498113
1566316799398, 10.501218, 6.0091043, -8.602911, -0.39517823, 0.1845, -0.083090626, -0.15659387, 0.051132694
1566316799399, 10.541388, 6.023474, -8.641231, -0.40954837, 0.1944684, -0.11824436, -0.15126756, 0.03089267
1566316799412, 10.535663, 6.05461, -8.614885, -0.3544629, 0.1826983, -0.12463594, -0.13315806, 0.010652645
1566316799413, 10.472866, 5.9133034, -8.636441, -0.3544629, 0.19061686, -0.14594123, -0.12250541, 0.0053263223
1566316799419, 10.438765, 5.8677983, -8.626861, -0.33769777, 0.1935061, -0.16085494, -0.10652645, -0.014913702
1566316799420, 10.370278, 5.7552323, -8.62207, -0.28261232, 0.20752162, -0.18429075, -0.094808534, -0.010652645
1566316799432, 10.414366, 5.743257, -8.684341, -0.23710695, 0.2144994, -0.19387813, -0.09054748, -0.014913702
1566316799432, 10.510339, 5.6642213, -8.847202, -0.33290774, 0.2224669, -0.21518342, -0.056459017, 0.0
1566316799440, 10.569764, 5.767207, -8.851993, -0.31853762, 0.23784043, -0.23648871, -0.024501082, -0.0063915867
1566316799441, 10.516542, 5.5492606, -8.926238, -0.3544629, 0.245034, -0.24501082, -0.0031957934, 0.0010652645
1566316799450, 10.405365, 5.479805, -8.842413, -0.23471193, 0.26159996, -0.2609898, 0.017044231, 0.0053263223
1566316799450, 10.286728, 5.3313136, -8.796907, -0.09101075, 0.2773352, -0.27377295, 0.039414786, 0.020240024
1566316799460, 10.15393, 5.149292, -8.751402, 0.0071850587, 0.28136697, -0.27483824, 0.04261058, 0.04261058
1566316799460, 10.112634, 5.110972, -8.725057, 0.12933107, 0.2967598, -0.2876214, 0.043675844, 0.058589544
1566316799470, 10.077853, 5.0654664, -8.710687, 0.16765137, 0.2972126, -0.28442562, 0.026631612, 0.082025364
1566316799485, 10.161476, 5.0654664, -8.806487, 0.20597169, 0.29198354, -0.27483824, 0.010652645, 0.098004326
1566316799486, 10.234045, 5.137317, -8.847202, 0.26584718, 0.2962642, -0.27164245, 0.0010652645, 0.11824436
1566316799487, 10.318605, 5.1852174, -8.919053, 0.1939966, 0.30164295, -0.27377295, -0.027696876, 0.12357068
1566316799492, 10.553483, 5.350474, -9.093889, 0.22273682, 0.30751657, -0.27377295, -0.036218993, 0.13528858
1566316799492, 10.679997, 5.5612354, -9.11784, -0.0023950196, 0.3124568, -0.27377295, -0.06391586, 0.13635385
1566316799503, 10.943759, 5.6690116, -9.359736, -0.15328126, 0.33482027, -0.30040458, -0.07243799, 0.128897
1566316799504, 11.102401, 5.726492, -9.510623, -0.13651612, 0.34120739, -0.314253, -0.058589544, 0.11930962
1566316799513, 11.235598, 5.702542, -9.678274, -0.22513184, 0.34254175, -0.31851408, -0.049002163, 0.11611383
1566316799513, 11.312936, 5.724097, -9.75731, -0.1101709, 0.36037597, -0.3355583, -0.03834952, 0.1257012
1566316799523, 11.277599, 5.654641, -9.75731, -0.06466553, 0.36490247, -0.33662358, -0.03089267, 0.13741912
1566316799524, 11.070226, 5.4319043, -9.642349, 0.26345217, 0.36150154, -0.32384038, -0.03089267, 0.15765914
1566316799532, 10.908537, 5.2929935, -9.527389, 0.45744875, 0.35049954, -0.29933932, -0.05219796, 0.17470337
1566316799533, 10.604012, 5.134922, -9.249566, 0.7232959, 0.3405749, -0.25885928, -0.070307456, 0.20985709
1566316799541, 10.32313, 5.0199614, -8.969349, 0.9580079, 0.3413005, -0.21837921, -0.10652645, 0.2396845
1566316799542, 10.221354, 4.976851, -8.847202, 1.1975098, 0.34740365, -0.16192019, -0.13102753, 0.27803403
1566316799551, 9.999569, 4.8499146, -8.641231, 1.341211, 0.35338694, -0.10439592, -0.16405073, 0.29507825
1566316799552, 9.8760395, 4.9217653, -8.459209, 1.3244458, 0.3768372, -0.033023197, -0.18429075, 0.3270362
1566316799560, 9.711989, 4.9505057, -8.238868, 1.3915064, 0.39689928, 0.029827405, -0.20985709, 0.3355583
1566316799562, 9.661976, 5.230723, -8.011341, 1.346001, 0.4326469, 0.09161274, -0.2396845, 0.34834146
1566316799571, 9.682935, 5.381609, -7.92512, 1.4106666, 0.4562355, 0.1587244, -0.26525086, 0.3355583
1566316799576, 9.562474, 5.4606447, -7.7407036, 1.3052857, 0.4846122, 0.22690132, -0.28016454, 0.32384038
1566316799581, 9.539078, 5.702542, -7.561077, 1.1424243, 0.5191654, 0.29294774, -0.30040458, 0.3057309
1566316799583, 9.535668, 5.774392, -7.5179667, 1.0322535, 0.5397318, 0.3536678, -0.2972088, 0.2790993
1566316799592, 9.539865, 5.865403, -7.472461, 0.8765772, 0.567028, 0.40586576, -0.30146983, 0.25672874
1566316799593, 9.582827, 6.1599903, -7.31439, 0.62031007, 0.5736021, 0.45060685, -0.2908172, 0.2034655
1566316799604, 9.573319, 6.1959157, -7.2808595, 0.4981641, 0.59205514, 0.49641323, -0.28442562, 0.15233281
1566316799605, 9.501635, 6.248606, -7.1539235, 0.23950197, 0.59764564, 0.5209143, -0.27164245, 0.10972224
1566316799611, 9.493977, 6.262976, -7.1347637, -0.07664063, 0.60048234, 0.53795856, -0.26205507, 0.05006743
1566316799613, 9.549182, 6.3635674, -7.1060233, -0.44307864, 0.59415215, 0.5432849, -0.2396845, -0.020240024
1566316799621, 9.586487, 6.356382, -7.1467385, -0.6490503, 0.5881755, 0.535828, -0.23116238, -0.07350325
1566316799622, 9.656431, 6.339617, -7.206614, -1.0585986, 0.57403225, 0.51452273, -0.21624869, -0.13422333
1566316799633, 9.739715, 6.239026, -7.3311553, -1.4801221, 0.543407, 0.46871635, -0.19281286, -0.19600865
1566316799636, 9.875757, 6.224656, -7.429351, -1.8944606, 0.5136839, 0.4079963, -0.16618125, -0.26418558
1566316799642, 9.905182, 6.229446, -7.3862405, -2.179468, 0.49508673, 0.34621096, -0.14274544, -0.32384038
1566316799644, 10.097183, 6.2965064, -7.472461, -2.543511, 0.48029608, 0.2428803, -0.13422333, -0.3920173
1566316799652, 10.048954, 6.085745, -7.510782, -2.7446926, 0.48690858, 0.13848437, -0.10013486, -0.45593318
1566316799654, 10.202926, 6.1216702, -7.585027, -3.0153298, 0.52899903, 0.022370555, -0.068176925, -0.52411014
1566316799663, 10.228619, 6.2701616, -7.5035963, -3.0009596, 0.6007723, -0.101200126, -0.049002163, -0.5901565
1566316799664, 10.477381, 6.229446, -7.822134, -3.1278956, 0.6817135, -0.24181503, -0.02130529, -0.63702816
1566316799672, 10.894053, 6.342012, -8.183782, -3.3889527, 0.81139106, -0.38775626, 0.010652645, -0.7126619
1566316799673, 11.244941, 6.2677665, -8.617281, -3.5925295, 0.952764, -0.5368933, 0.06924219, -0.7840346
1566316799683, 11.421778, 6.095325, -8.964559, -3.5973196, 1.0928066, -0.6892261, 0.12783173, -0.8383631
1566316799685, 11.614349, 6.1599903, -9.266331, -3.3290772, 1.2472268, -0.8383631, 0.20133498, -0.9012137
1566316799692, 11.71314, 6.143225, -9.426797, -3.2548318, 1.4000335, -0.98856544, 0.2790993, -0.95128113
1566316799693, 11.748774, 5.934859, -9.740545, -2.816543, 1.5093808, -1.1068097, 0.35473305, -0.96299905
1566316799702, 11.705202, 5.5947657, -10.025552, -2.2800586, 1.6166482, -1.2080098, 0.43782368, -0.98110855
1566316799703, 11.619457, 5.2929935, -10.188414, -1.7866846, 1.6818546, -1.2761868, 0.50813115, -0.97045594
1566316799713, 11.660958, 5.108577, -10.420731, -1.1352394, 1.7425972, -1.3358417, 0.5699165, -0.96299905
1566316799714, 11.612493, 4.9169755, -10.504556, -0.5724097, 1.7768283, -1.3592775, 0.6263755, -0.9576728
1566316799724, 11.452458, 4.5864625, -10.492581, 0.17004639, 1.7692645, -1.3475596, 0.6689861, -0.9310411
1566316799725, 11.348228, 4.3158255, -10.459051, 0.87418216, 1.716547, -1.2974921, 0.6743124, -0.8990832
1566316799733, 11.282307, 4.064348, -10.403965, 1.590293, 1.6387252, -1.2357068, 0.66152924, -0.8490158
1566316799735, 11.233607, 3.8535867, -10.356065, 2.0237916, 1.5462786, -1.1483551, 0.6402239, -0.813862
1566316799743, 11.127161, 3.6332448, -10.2387085, 2.4045997, 1.4201349, -1.0439591, 0.60507023, -0.7488809
1566316799744, 10.920242, 3.3554225, -10.090218, 2.4860303, 1.2934513, -0.9416938, 0.5656554, -0.6828345
1566316799753, 10.872902, 3.3386574, -9.984837, 2.7159522, 1.1474104, -0.8213189, 0.5049353, -0.6221144
1566316799755, 10.691557, 3.2859669, -9.7812605, 2.799778, 0.99697655, -0.6988135, 0.44847634, -0.551807
1566316799764, 10.590177, 3.3602126, -9.570498, 3.04407, 0.8429769, -0.56672066, 0.37816888, -0.49641323
1566316799765, 10.5337715, 3.3673975, -9.496253, 3.0728102, 0.6992924, -0.44847634, 0.29933932, -0.44528055
1566316799776, 10.503824, 3.5015187, -9.441168, 2.9889846, 0.5452666, -0.28868666, 0.23861924, -0.39627838
1566316799778, 10.47688, 3.657195, -9.352551, 2.9865894, 0.421686, -0.16085494, 0.16618125, -0.35260254
1566316799784, 10.495645, 3.8392165, -9.314231, 2.943479, 0.34028655, -0.023435818, 0.094808534, -0.32597092
1566316799785, 10.396187, 3.9661524, -9.2328005, 2.6656568, 0.31795067, 0.10013486, 0.04580637, -0.29827404
1566316799794, 10.121849, 3.8823268, -9.053174, 2.327959, 0.35621592, 0.22264028, -0.004261058, -0.27803403
1566316799795, 9.968086, 3.8272414, -8.964559, 2.0860622, 0.41935444, 0.3323625, -0.05219796, -0.25033715
1566316799804, 9.852576, 3.8440065, -8.878338, 1.8633252, 0.49154076, 0.4314321, -0.07989483, -0.221575
1566316799805, 9.678174, 3.7027004, -8.825647, 1.4370118, 0.5553472, 0.5113269, -0.113983296, -0.18429075
1566316799815, 9.627023, 3.7362306, -8.818462, 0.977168, 0.60861665, 0.5763081, -0.112918034, -0.15978967
1566316799817, 9.701203, 3.781736, -8.907078, 0.68976563, 0.64723474, 0.62317973, -0.12676647, -0.12037488
1566316799823, 9.64701, 3.6931202, -8.907078, 0.29937744, 0.67663497, 0.6583334, -0.128897, -0.08841695
1566316799825, 9.653784, 3.7170706, -8.909473, 0.014370117, 0.6990197, 0.6828345, -0.13848437, -0.056459017
1566316799834, 9.618222, 3.8008962, -8.828042, -0.35925296, 0.7022751, 0.6892261, -0.13209279, -0.026631612
1566316799836, 9.61047, 3.772156, -8.816068, -0.6394702, 0.6846941, 0.67324716, -0.12463594, 0.0031957934
1566316799845, 9.835443, 3.899092, -8.976534, -0.977168, 0.66981083, 0.6625945, -0.09374327, 0.02876214
1566316799846, 9.855222, 3.8535867, -8.978929, -1.2861255, 0.62000406, 0.6135923, -0.06498113, 0.060720075
1566316799854, 9.858238, 3.9901028, -8.892708, -1.477727, 0.58305204, 0.5763081, -0.033023197, 0.082025364
1566316799855, 10.52773, 4.9696655, -9.108259, -1.7818946, 0.5183417, 0.515588, -0.0031957934, 0.053263225
1566316799864, 10.528328, 4.9217653, -9.093889, -1.9806812, 0.46684113, 0.46232477, 0.04580637, 0.04580637
1566316799865, 10.080987, 4.3373804, -8.969349, -1.5376027, 0.43230975, 0.42184472, 0.07882957, 0.05219796
1566316799874, 9.53022, 3.8751419, -8.619676, -1.2286451, 0.41208115, 0.386691, 0.1107875, 0.08948222
1566316799877, 9.436843, 3.68354, -8.56938, -1.4322218, 0.3927591, 0.34194988, 0.14487597, 0.12783173
1566316799884, 9.264727, 3.558999, -8.425679, -1.4753321, 0.37944055, 0.2908172, 0.18216023, 0.16192019
1566316799885, 9.29006, 3.896697, -8.301138, -1.4873072, 0.34939864, 0.23329292, 0.19920446, 0.16724652
1566316799894, 9.643721, 4.26074, -8.48316, -1.698069, 0.32807726, 0.17044231, 0.21837921, 0.17576863
1566316799895, 9.850447, 4.5744877, -8.547825, -1.7435743, 0.29965758, 0.10865697, 0.22903186, 0.15978967
1566316799907, 9.905543, 4.5601172, -8.657996, -1.5376027, 0.30181783, 0.05539375, 0.2545982, 0.15233281
1566316799908, 9.9384165, 4.5936475, -8.689131, -1.4729371, 0.2876076, 0.0053263223, 0.24714136, 0.1470065
1566316799915, 9.929288, 4.5625124, -8.701106, -1.4370118, 0.28013822, -0.03834952, 0.2428803, 0.13422333
1566316799917, 9.877094, 4.5768824, -8.677156, -1.1472144, 0.28391847, -0.060720075, 0.2396845, 0.13954964
1566316799925, 9.766021, 4.4547367, -8.646021, -0.8813672, 0.27426165, -0.09161274, 0.221575, 0.13315806
1566316799926, 9.810645, 4.5074267, -8.686736, -0.68737066, 0.24928099, -0.0958738, 0.18535602, 0.13635385
1566316799935, 9.909452, 4.5792775, -8.772957, -0.5125342, 0.23659666, -0.08735169, 0.16724652, 0.14274544
1566316799936, 9.9906845, 4.670288, -8.823253, -0.3903882, 0.21589682, -0.07989483, 0.14807177, 0.13528858
1566316799945, 9.983396, 4.7325587, -8.787327, -0.23231691, 0.18780707, -0.05965481, 0.11824436, 0.13315806
1566316799946, 9.948837, 4.653523, -8.792117, -0.15088624, 0.16520874, -0.025566347, 0.0958738, 0.13209279
1566316799955, 9.815685, 4.636758, -8.650811, -0.10777588, 0.14582454, -0.0031957934, 0.054328486, 0.13528858
1566316799956, 9.783594, 4.5696974, -8.650811, -0.0071850587, 0.14628296, 0.027696876, 0.015978966, 0.14274544
1566316799965, 9.706896, 4.4451566, -8.629255, -0.019160157, 0.15997776, 0.0628506, -0.025566347, 0.14487597
1566316799967, 9.684071, 4.3230104, -8.665181, -0.086220704, 0.2057064, 0.0958738, -0.06924219, 0.16831179
1566316799975, 9.695438, 4.4427614, -8.617281, -0.07664063, 0.24246177, 0.12463594, -0.10226539, 0.18109496
1566316799977, 9.708476, 4.533772, -8.583751, -0.13651612, 0.28323418, 0.16298546, -0.12996227, 0.1917476
1566316799985, 9.61462, 4.4571314, -8.519085, -0.009580079, 0.32594132, 0.18855181, -0.1736381, 0.20133498
1566316799987, 9.714156, 4.5720925, -8.56938, -0.16286133, 0.35808417, 0.21411815, -0.20559604, 0.20026971
1566316799998, 9.805589, 4.7062135, -8.600515, -0.17962648, 0.4134379, 0.25566345, -0.24714136, 0.21092236
1566316800000, 9.800855, 4.670288, -8.614885, -0.17004639, 0.45258197, 0.28868666, -0.2790993, 0.20879184
1566316800006, 9.7230425, 4.6774735, -8.519085, -0.28979737, 0.48676062, 0.30679616, -0.3121225, 0.2130529
1566316800007, 9.65568, 4.622388, -8.466394, -0.43110353, 0.51329726, 0.3270362, -0.3270362, 0.22264028
1566316800016, 9.618403, 4.6271777, -8.411309, -0.5939649, 0.5446669, 0.35153726, -0.34301516, 0.23542345
1566316800018, 9.492864, 4.526587, -8.3179035, -0.6610254, 0.56166214, 0.35899413, -0.35792887, 0.24181503
1566316800026, 9.492484, 4.567302, -8.277188, -0.85741705, 0.573042, 0.36645097, -0.36325517, 0.24927188
1566316800028, 9.422438, 4.5002418, -8.236472, -0.8310718, 0.5842157, 0.37923414, -0.36645097, 0.2514024
1566316800037, 9.466653, 4.6128078, -8.214917, -0.9244776, 0.5876495, 0.38242993, -0.3749731, 0.24181503
1566316800038, 9.516986, 4.7397437, -8.202942, -0.9053174, 0.5859797, 0.37816888, -0.37390783, 0.24607609
1566316800046, 9.480513, 4.727769, -8.174202, -0.8430469, 0.58479136, 0.3834952, -0.3568636, 0.25992453
1566316800049, 9.480729, 4.655918, -8.193362, -1.0370435, 0.5862266, 0.38456047, -0.36112466, 0.25566345
1566316800056, 9.449414, 4.615203, -8.178992, -1.0466236, 0.5673421, 0.3749731, -0.3355583, 0.26205507
1566316800058, 9.656169, 4.7301636, -8.329878, -1.2166699, 0.5471499, 0.36005938, -0.30786142, 0.27377295
1566316800066, 9.571393, 4.756509, -8.210127, -1.2573853, 0.52716815, 0.34514567, -0.28122982, 0.28229508
1566316800067, 9.676127, 4.8020144, -8.291558, -1.3483961, 0.50235325, 0.32810146, -0.2514024, 0.28549087
1566316800076, 9.635328, 4.8594947, -8.229287, -1.22625, 0.48926264, 0.314253, -0.221575, 0.30253512
1566316800077, 9.576891, 4.8139896, -8.198153, -1.1543995, 0.47566056, 0.3057309, -0.1949434, 0.30786142
1566316800086, 9.535144, 4.9409256, -8.078402, -1.1160791, 0.45396516, 0.2908172, -0.16937704, 0.30466563
1566316800088, 9.536942, 5.000801, -8.025711, -1.2382251, 0.44573647, 0.27696875, -0.16085494, 0.30999196
1566316800098, 9.613496, 5.158872, -8.032896, -1.1304493, 0.43120188, 0.2727077, -0.1438107, 0.30146983
1566316800099, 9.745132, 5.249883, -8.135881, -1.101709, 0.41637263, 0.2609898, -0.12250541, 0.30040458
1566316800107, 9.802327, 5.3241286, -8.159832, -1.0753639, 0.38993627, 0.24394555, -0.099069595, 0.2876214
1566316800108, 9.895463, 5.4199295, -8.169412, -1.343606, 0.36703268, 0.21518342, -0.083090626, 0.28549087
1566316800117, 9.867234, 5.4678297, -8.119117, -1.2430152, 0.33866364, 0.18642128, -0.06178534, 0.2759035
1566316800118, 9.931187, 5.625901, -8.047266, -1.4897022, 0.30812854, 0.15020229, -0.029827405, 0.26738137
1566316800128, 9.958482, 5.601951, -8.102351, -1.463357, 0.28876722, 0.12357068, 0.0010652645, 0.2609898
1566316800129, 10.067229, 5.6426663, -8.178992, -1.6166383, 0.25192097, 0.07137272, 0.020240024, 0.24074976
1566316800137, 10.275264, 5.6522465, -8.382568, -1.8345851, 0.24852872, 0.015978966, 0.04474111, 0.24394555
1566316800139, 10.470172, 5.704937, -8.57417, -1.8872755, 0.25277537, -0.03834952, 0.0628506, 0.24181503
1566316800149, 10.732025, 5.8055277, -8.813672, -1.947151, 0.26523587, -0.10333065, 0.082025364, 0.23009712
1566316800151, 11.020158, 5.9013286, -9.096285, -1.9687061, 0.30238128, -0.165116, 0.101200126, 0.23222765
1566316800159, 11.288321, 5.9540186, -9.376502, -2.0142114, 0.3471046, -0.2247708, 0.12463594, 0.23329292
1566316800160, 11.366899, 5.846243, -9.5633135, -1.8896705, 0.38837618, -0.2790993, 0.13422333, 0.23435818
1566316800168, 11.514107, 5.870193, -9.754915, -1.719624, 0.426199, -0.30999196, 0.15126756, 0.25033715
1566316800184, 11.435618, 5.719307, -9.793235, -1.468147, 0.46389914, -0.33981937, 0.1555286, 0.27483824
1566316800185, 11.474605, 5.743257, -9.869876, -1.1256592, 0.48369342, -0.34194988, 0.15765914, 0.30360037
1566316800187, 11.281431, 5.5636306, -9.79084, -0.67539555, 0.4937613, -0.33768883, 0.13635385, 0.3334278
1566316800188, 11.197117, 5.589976, -9.685459, -0.56522465, 0.5069909, -0.32810146, 0.112918034, 0.36964676
1566316800189, 11.21835, 5.709727, -9.654325, -0.21076173, 0.51497245, -0.31851408, 0.09161274, 0.39414784
1566316800198, 11.127336, 5.6929617, -9.558523, -0.20597169, 0.5226596, -0.3057309, 0.07882957, 0.4165184
1566316800199, 11.134307, 5.8749833, -9.453142, -0.30895755, 0.5173151, -0.28122982, 0.05752428, 0.43036684
1566316800208, 11.105572, 5.9947343, -9.340576, -0.3879932, 0.5187444, -0.28122982, 0.054328486, 0.43249738
1566316800209, 11.185092, 6.224656, -9.285491, -0.37362307, 0.5285752, -0.29188246, 0.05006743, 0.43782368
1566316800218, 11.186384, 6.4090724, -9.15137, -0.55803955, 0.52255535, -0.30466563, 0.037284255, 0.42290998
1566316800219, 11.049058, 6.5407987, -8.885523, -0.5891748, 0.5211169, -0.314253, 0.033023197, 0.41438788
1566316800230, 11.031433, 6.581514, -8.837623, -0.5221143, 0.50618, -0.31957933, 0.020240024, 0.3920173
1566316800232, 10.966909, 6.6749196, -8.693921, -0.366438, 0.48579094, -0.3270362, 0.0127831735, 0.35899413
1566316800239, 10.941329, 6.71803, -8.634046, -0.18441652, 0.46338022, -0.3323625, 0.008522116, 0.32277513
1566316800242, 10.822433, 6.734795, -8.471185, -0.081430666, 0.43426743, -0.3174488, -0.010652645, 0.29614353
1566316800250, 10.899457, 6.840176, -8.485555, 0.07424561, 0.39774612, -0.30999196, -0.022370555, 0.24820662
1566316800251, 10.841514, 6.835386, -8.408914, 0.32572266, 0.3412606, -0.26525086, -0.034088463, 0.21198763
1566316800259, 10.8635025, 6.9144216, -8.368198, 0.4239185, 0.29312393, -0.23222765, -0.03834952, 0.17470337
1566316800261, 10.768533, 6.7563505, -8.358619, 0.6682105, 0.20991117, -0.165116, -0.05539375, 0.11717909
1566316800269, 10.714582, 6.6749196, -8.356223, 0.6490503, 0.15053435, -0.10865697, -0.0628506, 0.083090626
1566316800270, 10.607453, 6.4593678, -8.375383, 0.8047266, 0.11099217, -0.036218993, -0.09161274, 0.051132694
1566316800282, 10.441702, 6.3012967, -8.277188, 0.90052736, 0.13399486, 0.04580637, -0.1257012, 0.007456851
1566316800284, 10.266227, 6.016289, -8.265213, 0.9412427, 0.1961736, 0.10865697, -0.16298546, -0.010652645
1566316800289, 10.088485, 5.8127127, -8.210127, 0.76401126, 0.2720974, 0.18002969, -0.20133498, -0.033023197
1566316800292, 10.06607, 5.7863674, -8.217313, 0.56522465, 0.33977762, 0.22796659, -0.24714136, -0.049002163
1566316800300, 10.080592, 5.6354814, -8.353828, 0.2706372, 0.40425348, 0.28122982, -0.28442562, -0.058589544
1566316800301, 10.103758, 5.6761966, -8.358619, 0.014370117, 0.4571164, 0.3089267, -0.32597092, -0.08522116
1566316800312, 10.198867, 5.5612354, -8.5430355, -0.32572266, 0.48667666, 0.3334278, -0.34514567, -0.080960095
1566316800314, 10.194123, 5.4103494, -8.617281, -0.62510014, 0.5301272, 0.35579833, -0.38029942, -0.099069595
1566316800320, 10.215655, 5.1900077, -8.739427, -1.0226734, 0.54356784, 0.34834146, -0.40586576, -0.096939065
1566316800321, 10.169461, 5.010381, -8.753797, -1.2981006, 0.5420448, 0.34194988, -0.4133226, -0.0777643
1566316800331, 10.093331, 4.756509, -8.792117, -1.3962965, 0.55331236, 0.32170987, -0.4463458, -0.058589544
1566316800332, 10.2865, 4.7397437, -8.966953, -1.7148341, 0.56878734, 0.29827404, -0.48363006, -0.025566347
1566316800340, 10.4154215, 4.7301636, -9.081915, -1.9040406, 0.58407, 0.25992453, -0.5230448, 0.0010652645
1566316800342, 10.6640415, 4.8211746, -9.307046, -1.9639161, 0.612225, 0.23755397, -0.5635249, 0.02876214
1566316800354, 10.788728, 4.87147, -9.393267, -2.1052222, 0.63268906, 0.2130529, -0.5933523, 0.053263225
1566316800355, 11.064436, 5.1971927, -9.534574, -2.1219873, 0.65132713, 0.17576863, -0.62104917, 0.08735169
1566316800363, 11.260246, 5.364844, -9.666299, -2.1387525, 0.6828702, 0.15126756, -0.6583334, 0.10013486
1566316800365, 11.530699, 5.582791, -9.860296, -2.1363575, 0.6991041, 0.12037488, -0.680704, 0.10439592
1566316800370, 11.760807, 5.870193, -9.944121, -2.2297633, 0.7103477, 0.09054748, -0.6956177, 0.111852765
1566316800371, 11.792173, 6.006709, -9.903406, -2.2129982, 0.70444274, 0.05752428, -0.6924219, 0.11611383
1566316800381, 11.887796, 6.212681, -9.877061, -2.2728736, 0.69675624, 0.018109497, -0.68816084, 0.10759171
1566316800382, 11.896148, 6.382727, -9.75252, -2.3806496, 0.68008274, -0.027696876, -0.6711166, 0.10652645
1566316800391, 11.727228, 6.4066777, -9.5633135, -2.2417383, 0.6625063, -0.08522116, -0.6498113, 0.096939065
1566316800393, 11.703231, 6.5120583, -9.479487, -2.1674929, 0.64742666, -0.11717909, -0.6317018, 0.07989483
1566316800401, 11.519161, 6.638994, -9.19448, -2.0190015, 0.63453734, -0.1587244, -0.6114618, 0.05965481
1566316800402, 11.368256, 6.615044, -9.050779, -1.8872755, 0.6295686, -0.18961707, -0.5997439, 0.026631612
1566316800412, 11.181222, 6.7395854, -8.760982, -1.6860938, 0.62739104, -0.221575, -0.58696073, 0.0010652645
1566316800415, 10.997886, 6.593489, -8.672366, -1.5064673, 0.61209065, -0.2428803, -0.5613944, -0.022370555
1566316800420, 10.837536, 6.588699, -8.509504, -1.2765454, 0.5985431, -0.25353295, -0.5368933, -0.07563378
1566316800422, 10.701115, 6.5360084, -8.399334, -1.1160791, 0.59064186, -0.27803403, -0.5091964, -0.1107875
1566316800431, 10.566871, 6.4138627, -8.346643, -0.9244776, 0.57891023, -0.28016454, -0.4857606, -0.1438107
1566316800433, 10.354912, 6.239026, -8.2197075, -0.85741705, 0.561081, -0.28229508, -0.4527374, -0.1736381
1566316800441, 10.191132, 6.1408305, -8.109536, -0.62031007, 0.5586314, -0.28122982, -0.43569317, -0.20772657
1566316800443, 9.991956, 5.839058, -8.090376, -0.5388794, 0.52899045, -0.26205507, -0.40373522, -0.21944448
1566316800451, 9.797168, 5.6187162, -8.01613, -0.39517823, 0.52991205, -0.25246766, -0.39627838, -0.24501082
1566316800452, 9.623459, 5.3408937, -7.9969707, -0.366438, 0.49692503, -0.21518342, -0.37071204, -0.2514024
1566316800466, 9.477102, 5.113367, -7.9778104, -0.15328126, 0.49013975, -0.19813919, -0.36751625, -0.25672874
1566316800471, 9.217648, 4.864285, -7.829319, -0.07424561, 0.4707565, -0.1587244, -0.37071204, -0.2428803
1566316800474, 9.099483, 4.655918, -7.817344, -0.1101709, 0.47805932, -0.13741912, -0.3888215, -0.24181503
1566316800475, 9.082777, 4.5792775, -7.8436894, -0.059875492, 0.4848826, -0.10652645, -0.40906155, -0.23755397
1566316800482, 9.036047, 4.4259963, -7.8772197, -0.100590825, 0.5018877, -0.05965481, -0.44741106, -0.21944448
1566316800483, 9.023451, 4.4116263, -7.8700347, -0.15088624, 0.5168773, -0.034088463, -0.47617322, -0.19813919
1566316800492, 9.117564, 4.387676, -7.9873905, -0.28261232, 0.53754914, -0.013848438, -0.5028048, -0.18961707
1566316800493, 9.151371, 4.385281, -8.020921, -0.4263135, 0.553874, 0.008522116, -0.5251754, -0.17576863
1566316800502, 9.234183, 4.495452, -8.040081, -0.6466553, 0.56357425, 0.024501082, -0.53795856, -0.16618125
1566316800503, 9.169649, 4.495452, -7.951465, -0.8047266, 0.5732598, 0.02130529, -0.55074173, -0.15765914
1566316800512, 9.198338, 4.5002418, -7.9634404, -0.9699829, 0.58042836, 0.01917476, -0.5603291, -0.15020229
1566316800513, 9.079945, 4.550537, -7.781419, -1.089734, 0.59192294, 0.017044231, -0.5752428, -0.13848437
1566316800522, 9.078056, 4.509822, -7.7598634, -1.3627661, 0.610033, 0.0, -0.5933523, -0.14168017
1566316800523, 9.009819, 4.5768824, -7.647298, -1.3220508, 0.6256295, -0.025566347, -0.60933125, -0.13954964
1566316800532, 9.001933, 4.7708793, -7.4772515, -1.5376027, 0.64397067, -0.05752428, -0.62531024, -0.14274544
1566316800533, 9.065301, 4.8044095, -7.5155716, -1.6166383, 0.6617839, -0.094808534, -0.6348976, -0.16085494
1566316800543, 9.178578, 5.007986, -7.4844365, -1.7747096, 0.6735353, -0.14168017, -0.6327671, -0.18216023
1566316800543, 9.298384, 5.125342, -7.534732, -1.8489552, 0.67677337, -0.20772657, -0.6125271, -0.19920446
1566316800553, 9.266159, 5.151687, -7.4580913, -1.9232007, 0.67459923, -0.26631612, -0.5784386, -0.22264028
1566316800553, 9.295857, 5.144502, -7.5059915, -1.8992506, 0.6795093, -0.3153183, -0.55074173, -0.2428803
1566316800563, 9.235763, 5.0989966, -7.4916215, -1.7818946, 0.67261565, -0.36112466, -0.50387007, -0.2609898
1566316800564, 9.219861, 5.0510964, -7.553892, -1.5591577, 0.68235654, -0.4101268, -0.46978164, -0.27696875
1566316800576, 9.214423, 5.0415163, -7.577842, -1.4370118, 0.6900908, -0.46232477, -0.42397526, -0.2876214
1566316800577, 9.20967, 4.991221, -7.6425076, -1.223855, 0.69480157, -0.49960902, -0.38136467, -0.29614353
1566316800586, 9.083231, 4.8523097, -7.589817, -1.1639795, 0.6940106, -0.5305017, -0.33449304, -0.2972088
1566316800587, 9.093876, 4.7948294, -7.661668, -1.0035132, 0.6913443, -0.55287224, -0.28975195, -0.2972088
1566316800595, 9.030339, 4.720584, -7.661668, -0.7496411, 0.67944, -0.57417756, -0.21624869, -0.29188246
1566316800596, 8.890567, 4.5888577, -7.5970025, -0.51971924, 0.6698718, -0.5773733, -0.17896444, -0.28868666
1566316800604, 8.836225, 4.495452, -7.599397, -0.34488282, 0.66076285, -0.5816344, -0.13422333, -0.28336033
1566316800605, 8.758336, 4.543352, -7.486831, -0.117355965, 0.64254874, -0.5773733, -0.08628642, -0.26844665
1566316800614, 8.684653, 4.4762917, -7.441326, 0.11256592, 0.63361835, -0.5656554, -0.06924219, -0.27696875
1566316800615, 8.73861, 4.4834766, -7.4940166, 0.31853762, 0.61302334, -0.5454154, -0.046871636, -0.2759035
1566316800627, 8.819716, 4.4619217, -7.5946074, 0.44786867, 0.58634365, -0.5294364, -0.02876214, -0.25033715
1566316800628, 8.867683, 4.5744877, -7.589817, 0.32332766, 0.56092924, -0.5028048, -0.014913702, -0.24820662
1566316800637, 9.015105, 4.631968, -7.719148, 0.48139894, 0.54762673, -0.4825648, -0.004261058, -0.25885928
1566316800638, 9.086083, 4.7636943, -7.7239385, 0.4526587, 0.52592784, -0.46019423, 0.0010652645, -0.2545982
1566316800647, 9.216231, 4.902605, -7.795789, 0.35925296, 0.50424045, -0.43888897, -0.0053263223, -0.24820662
1566316800648, 9.36069, 4.976851, -7.9083548, 0.55803955, 0.4785267, -0.41225734, -0.0063915867, -0.2428803
1566316800653, 9.542574, 5.087022, -8.054451, 0.5556446, 0.4612386, -0.3920173, -0.008522116, -0.2428803
1566316800654, 9.734192, 5.1828227, -8.229287, 0.4143384, 0.4390363, -0.3653857, -0.015978966, -0.2428803
1566316800664, 9.73703, 5.1900077, -8.229287, 0.3903882, 0.43287504, -0.3536678, -0.0127831735, -0.24927188
1566316800665, 9.816762, 5.352869, -8.224498, 0.2706372, 0.42368206, -0.33662358, -0.02876214, -0.25566345
1566316800675, 9.894374, 5.357659, -8.315508, 0.21555176, 0.41384393, -0.32170987, -0.036218993, -0.257794
1566316800675, 9.979517, 5.4606447, -8.349038, 0.2562671, 0.4189646, -0.31957933, -0.043675844, -0.26738137
1566316800687, 10.031433, 5.484595, -8.399334, 0.0071850587, 0.42435917, -0.31851408, -0.05006743, -0.2759035
1566316800690, 10.001454, 5.4295096, -8.399334, -0.026345216, 0.42963052, -0.32277513, -0.060720075, -0.27696875
1566316800693, 10.00864, 5.4534597, -8.392149, -0.06706055, 0.4352684, -0.3355583, -0.043675844, -0.27377295
1566316800696, 9.888975, 5.372029, -8.301138, -0.15567628, 0.44485858, -0.34301516, -0.023435818, -0.28229508
1566316800704, 9.949822, 5.479805, -8.303533, -0.14849122, 0.45037007, -0.34514567, -0.01917476, -0.28868666
1566316800705, 9.852051, 5.4199295, -8.226892, -0.07424561, 0.4682186, -0.36432046, 0.007456851, -0.294013
1566316800718, 9.819603, 5.388794, -8.207732, 0.13651612, 0.46270385, -0.35792887, 0.0127831735, -0.29294774
1566316800719, 9.795401, 5.3480787, -8.202942, 0.244292, 0.46681076, -0.35792887, 0.04580637, -0.29614353
1566316800728, 9.757908, 5.2882032, -8.195757, 0.28500733, 0.4673234, -0.35473305, 0.06498113, -0.2972088
1566316800729, 9.677667, 5.3121533, -8.078402, 0.42152345, 0.46167755, -0.3387541, 0.09374327, -0.29933932
1566316800738, 9.587541, 5.125342, -8.085587, 0.5245093, 0.44149524, -0.30786142, 0.10865697, -0.2972088
1566316800739, 9.542988, 5.0894165, -8.044871, 0.6682105, 0.43558118, -0.27803403, 0.12250541, -0.3121225
1566316800748, 9.453171, 4.9576907, -8.011341, 0.7759864, 0.4211892, -0.2514024, 0.14168017, -0.30679616
1566316800749, 9.344078, 4.8571, -7.937095, 0.85023195, 0.38929403, -0.20453078, 0.15659387, -0.29188246
1566316800758, 9.376486, 4.7708793, -8.042476, 0.68976563, 0.3661737, -0.16831179, 0.15765914, -0.28442562
1566316800759, 9.4230385, 4.790039, -8.085587, 0.68737066, 0.34374553, -0.13954964, 0.16831179, -0.26525086
1566316800768, 9.428821, 4.7876444, -8.1071415, 0.50534916, 0.3349016, -0.112918034, 0.17044231, -0.26525086
1566316800769, 9.454287, 4.7948294, -8.135881, 0.44786867, 0.3194728, -0.08522116, 0.17470337, -0.25353295
1566316800779, 9.515554, 4.773274, -8.226892, 0.28261232, 0.30508253, -0.08735169, 0.17470337, -0.23435818
1566316800780, 9.587235, 4.7301636, -8.337064, 0.18441652, 0.2925659, -0.051132694, 0.17044231, -0.23222765
1566316800788, 9.711149, 4.754114, -8.466394, 0.1580713, 0.27724725, -0.036218993, 0.16831179, -0.21731395
1566316800789, 9.782959, 4.7062135, -8.576566, -0.019160157, 0.2562797, -0.013848438, 0.15659387, -0.20240025
1566316800796, 9.697579, 4.5577226, -8.5598, 0.0047900393, 0.22508107, 0.0, 0.1470065, -0.17044231
1566316800797, 9.765298, 4.5074267, -8.6627865, -0.016765138, 0.18259887, 0.011717909, 0.11717909, -0.13954964
1566316800806, 9.874823, 4.655918, -8.708291, -0.014370117, 0.16677429, 0.024501082, 0.11611383, -0.11717909
1566316800808, 10.026299, 4.7469287, -8.830438, -0.12933107, 0.13130869, 0.037284255, 0.09267801, -0.08522116
1566316800819, 10.421532, 5.046306, -9.115445, -0.22752686, 0.12103298, 0.056459017, 0.07243799, -0.07882957
1566316800820, 10.691948, 5.233118, -9.321417, -0.2083667, 0.11358937, 0.07243799, 0.058589544, -0.06498113
1566316800829, 10.870148, 5.4822, -9.381292, -0.31135255, 0.10113843, 0.07882957, 0.02876214, -0.056459017
1566316800830, 11.128861, 5.7887626, -9.501043, -0.2682422, 0.12053975, 0.10439592, 0.008522116, -0.05965481
1566316800839, 11.334018, 5.942044, -9.649534, -0.19639161, 0.13461588, 0.12037488, -0.008522116, -0.05965481
1566316800840, 11.528076, 6.11209, -9.769285, -0.3161426, 0.14319786, 0.13102753, -0.022370555, -0.053263225
1566316800851, 11.512185, 6.1552005, -9.726174, -0.21315674, 0.16454113, 0.14807177, -0.022370555, -0.068176925
1566316800852, 11.475309, 6.210286, -9.644744, -0.3065625, 0.18072173, 0.1555286, -0.025566347, -0.08841695
1566316800858, 11.464384, 6.2989016, -9.572893, -0.34009278, 0.19664736, 0.17044231, -0.014913702, -0.096939065
1566316800859, 11.416088, 6.349197, -9.484278, -0.25147706, 0.21419498, 0.18642128, -0.002130529, -0.10546118
1566316800870, 11.1722145, 6.1719656, -9.311836, -0.122146, 0.24280086, 0.20772657, 0.036218993, -0.12037488
1566316800871, 10.9418, 6.09772, -9.08431, -0.12693603, 0.256428, 0.2130529, 0.07137272, -0.12357068
1566316800879, 10.769828, 6.0258694, -8.926238, 0.019160157, 0.31007063, 0.24927188, 0.11930962, -0.14061491
1566316800880, 10.531117, 6.0091043, -8.648416, 0.0023950196, 0.36673576, 0.2876214, 0.16405073, -0.15765914
1566316800889, 10.201265, 5.8198977, -8.377779, 0.086220704, 0.4180291, 0.3153183, 0.20240025, -0.18535602
1566316800890, 9.789736, 5.6594315, -7.9849954, 0.22273682, 0.47281903, 0.36005938, 0.24074976, -0.18961707
1566316800897, 9.602832, 5.621111, -7.783814, 0.17244141, 0.5387774, 0.41225734, 0.28016454, -0.20453078
1566316800898, 9.362516, 5.5372853, -7.549102, 0.07903565, 0.5910116, 0.44528055, 0.31851408, -0.22264028
1566316800906, 9.211547, 5.484595, -7.4006104, -0.05269043, 0.6589623, 0.49215218, 0.36112466, -0.24820662
1566316800908, 9.134982, 5.4319043, -7.3383403, -0.30177248, 0.7094333, 0.51452273, 0.4101268, -0.26525086
1566316800916, 9.124996, 5.3935843, -7.326365, -0.7065308, 0.75571114, 0.5230448, 0.4495416, -0.3089267
1566316800918, 9.112952, 5.374424, -7.288045, -1.0226734, 0.79381365, 0.52837116, 0.4889564, -0.33449304
1566316800926, 9.234179, 5.343289, -7.3814507, -1.4944923, 0.8230993, 0.515588, 0.5251754, -0.3685815
1566316800934, 9.421711, 5.479805, -7.424561, -1.9016455, 0.8521989, 0.47510794, 0.57417756, -0.4133226
1566316800938, 9.503091, 5.391189, -7.5035963, -2.2225783, 0.8683101, 0.43249738, 0.60080916, -0.45380265
1566316800939, 9.695921, 5.2977834, -7.692803, -2.6009912, 0.87912464, 0.36645097, 0.6295713, -0.49215218
1566316800948, 9.90634, 5.3289185, -7.829319, -2.9051588, 0.88310426, 0.30360037, 0.63915867, -0.52837116
1566316800949, 10.140553, 5.230723, -8.044871, -3.278782, 0.9017072, 0.22370553, 0.664725, -0.56672066
1566316800957, 10.324623, 5.132527, -8.327483, -3.302732, 0.91622835, 0.13954964, 0.69135666, -0.58483016
1566316800959, 10.472908, 5.0726514, -8.425679, -3.5997145, 0.9230214, 0.043675844, 0.68816084, -0.6135923
1566316800968, 10.691002, 4.960086, -8.725057, -3.68354, 0.9197064, -0.054328486, 0.68389976, -0.6125271
1566316800969, 10.969234, 4.8666797, -9.057964, -3.8200562, 0.9333875, -0.15659387, 0.6828345, -0.61678815
1566316800980, 11.108918, 4.8571, -9.292676, -3.6691701, 0.9422196, -0.25246766, 0.6689861, -0.6135923
1566316800981, 11.263125, 4.8594947, -9.539363, -3.4991236, 0.93106365, -0.3206446, 0.6348976, -0.60080916
1566316800988, 11.400988, 4.8451247, -9.814791, -3.1901662, 0.9457437, -0.39627838, 0.60507023, -0.60933125
1566316800989, 11.281227, 5.031936, -9.740545, -2.6584718, 0.9276753, -0.4314321, 0.567786, -0.5933523
1566316800999, 11.326293, 4.718189, -10.047108, -2.2537134, 0.89605457, -0.46019423, 0.5113269, -0.57417756
1566316801000, 11.264156, 4.639153, -10.085427, -1.9088306, 0.87378055, -0.4825648, 0.48043427, -0.5475459
1566316801009, 11.157109, 4.399651, -10.097403, -1.7794995, 0.8392952, -0.4889564, 0.4527374, -0.51026165
1566316801010, 11.1374035, 4.514612, -10.099798, -1.2861255, 0.8011851, -0.4825648, 0.41971418, -0.4825648
1566316801020, 11.129178, 4.655918, -10.063872, -0.9484278, 0.7630707, -0.47404268, 0.3930826, -0.45060685
1566316801021, 10.943545, 4.636758, -9.891431, -0.6490503, 0.7053595, -0.4495416, 0.35792887, -0.40906155
1566316801029, 10.854029, 4.358936, -9.936936, -0.25866213, 0.6415139, -0.4079963, 0.34088463, -0.35899413
1566316801030, 10.818723, 4.387676, -9.889036, -0.0047900393, 0.57319343, -0.36005938, 0.3206446, -0.30999196
1566316801039, 10.788067, 4.28948, -9.898616, 0.011975098, 0.507615, -0.30786142, 0.30786142, -0.2609898
1566316801040, 10.574901, 4.1721244, -9.7142, 0.23710695, 0.4225543, -0.23861924, 0.28549087, -0.20026971
1566316801049, 10.383483, 4.0835085, -9.536968, 0.43349856, 0.36255002, -0.1587244, 0.29507825, -0.13848437
1566316801050, 10.199673, 4.1050634, -9.321417, 0.5412744, 0.32378784, -0.08522116, 0.30360037, -0.07350325
1566316801061, 10.010851, 4.1146436, -9.105865, 0.60833496, 0.30201513, -0.0010652645, 0.30146983, -0.018109497
1566316801062, 9.969, 4.3445654, -8.954978, 0.5604346, 0.31889153, 0.06178534, 0.3121225, 0.02130529
1566316801070, 9.7645, 4.5002418, -8.648416, 0.5460645, 0.3501529, 0.13422333, 0.3174488, 0.06178534
1566316801071, 9.722024, 4.6271777, -8.54543, 0.28740236, 0.4058434, 0.20240025, 0.3387541, 0.094808534
1566316801081, 9.5763235, 4.7157936, -8.334668, 0.023950197, 0.4611168, 0.24927188, 0.3717773, 0.1107875
1566316801082, 9.462051, 4.775669, -8.162227, -0.31853762, 0.5011172, 0.28655612, 0.3930826, 0.12037488
1566316801092, 9.457964, 4.9337406, -8.047266, -0.5939649, 0.5417087, 0.3153183, 0.42184472, 0.12676647
1566316801093, 9.439716, 4.9433208, -7.9778104, -1.0130934, 0.5699682, 0.32277513, 0.4495416, 0.13635385
1566316801103, 9.417048, 4.960086, -7.9155397, -1.1927198, 0.5886374, 0.33768883, 0.46019423, 0.1438107
1566316801105, 9.290587, 4.8211746, -7.783814, -1.575923, 0.5971594, 0.3355583, 0.47191215, 0.14594123
1566316801110, 9.385001, 4.869075, -7.8580594, -1.6190332, 0.6026602, 0.3355583, 0.47617322, 0.15446335
1566316801111, 9.2668495, 4.6774735, -7.781419, -1.8561403, 0.5877963, 0.32277513, 0.45912898, 0.17470337
1566316801119, 9.244013, 4.5720925, -7.800579, -1.9232007, 0.5646515, 0.3121225, 0.43249738, 0.18535602
1566316801130, 9.259503, 4.6607084, -7.7598634, -1.949546, 0.52061903, 0.30786142, 0.37071204, 0.19707392
1566316801131, 9.441382, 4.8115945, -7.862849, -2.0405567, 0.48530602, 0.2908172, 0.32277513, 0.21624869
1566316801132, 9.553876, 4.8571, -7.937095, -2.1650977, 0.44360813, 0.27377295, 0.27057716, 0.22050974
1566316801142, 9.674247, 4.873865, -8.042476, -2.2704787, 0.40995523, 0.2545982, 0.21518342, 0.23861924
1566316801143, 9.743889, 5.024751, -8.013736, -2.339934, 0.36969587, 0.22796659, 0.1768339, 0.23116238
1566316801153, 9.896734, 5.0271463, -8.155042, -2.4836354, 0.33864856, 0.19600865, 0.13528858, 0.24074976
1566316801154, 9.867168, 4.9864306, -8.128696, -2.5339308, 0.3131805, 0.15339808, 0.10652645, 0.2514024
1566316801160, 9.977324, 5.0822315, -8.169412, -2.6417067, 0.27835423, 0.10546118, 0.06498113, 0.24927188
1566316801161, 10.01969, 5.094207, -8.174202, -2.7614577, 0.26699063, 0.056459017, 0.040480047, 0.257794
1566316801173, 10.197222, 5.264253, -8.296348, -2.7279274, 0.27135193, 0.0031957934, 0.020240024, 0.27057716
1566316801174, 10.172668, 5.2977834, -8.279583, -2.6201515, 0.2800045, -0.058589544, 0.004261058, 0.27377295
1566316801183, 10.315727, 5.455855, -8.3322735, -2.687212, 0.31017676, -0.11611383, -0.0010652645, 0.2876214
1566316801184, 10.319976, 5.5229154, -8.358619, -2.4764502, 0.33553973, -0.16724652, -0.0063915867, 0.2908172
1566316801193, 10.299821, 5.503755, -8.396939, -2.299219, 0.36418962, -0.20879184, 0.008522116, 0.29827404
1566316801194, 10.314527, 5.604346, -8.401729, -2.095642, 0.3891774, -0.24181503, 0.0127831735, 0.30466563
1566316801204, 10.399396, 5.709727, -8.473579, -1.9351759, 0.4208334, -0.2727077, 0.024501082, 0.31957933
1566316801204, 10.393331, 5.6618266, -8.54543, -1.7148341, 0.4467372, -0.29827404, 0.039414786, 0.330232
1566316801214, 10.430263, 5.719307, -8.614885, -1.3651612, 0.47746906, -0.31957933, 0.06711166, 0.34834146
1566316801215, 10.252867, 5.621111, -8.502319, -1.1112891, 0.49066386, -0.31638354, 0.101200126, 0.36112466
1566316801223, 10.21619, 5.606741, -8.49753, -0.852627, 0.49270755, -0.30360037, 0.10759171, 0.37284255
1566316801225, 10.06398, 5.597161, -8.339458, -0.6394702, 0.5113114, -0.2972088, 0.12676647, 0.39627838
1566316801233, 9.988116, 5.518125, -8.313113, -0.4526587, 0.5201687, -0.27696875, 0.14274544, 0.4165184
1566316801234, 10.054996, 5.5947657, -8.351434, -0.23471193, 0.51950514, -0.24927188, 0.14061491, 0.43356264
1566316801244, 9.92198, 5.5875807, -8.198153, -0.122146, 0.5124365, -0.20879184, 0.14061491, 0.4463458
1566316801245, 9.919559, 5.5803957, -8.200547, 0.08861572, 0.48991975, -0.15765914, 0.12996227, 0.44528055
1566316801253, 9.951569, 5.724097, -8.135881, 0.27542725, 0.46189013, -0.10226539, 0.08628642, 0.44208476
1566316801255, 9.916315, 5.7719975, -8.042476, 0.57959473, 0.4403036, -0.014913702, 0.03195793, 0.43888897
1566316801263, 9.930872, 5.752837, -8.061636, 0.732876, 0.43698573, 0.06924219, -0.060720075, 0.42717105
1566316801265, 10.035293, 5.8749833, -8.059241, 1.1136842, 0.48752698, 0.18642128, -0.16085494, 0.42077947
1566316801272, 10.007868, 5.824688, -8.0305, 1.3196558, 0.5961466, 0.30360037, -0.3110572, 0.4079963
1566316801273, 10.046887, 5.877378, -7.9921803, 1.587898, 0.75474644, 0.43995422, -0.47510794, 0.38775626
1566316801282, 10.01765, 5.858218, -7.9538603, 1.6645386, 0.9561453, 0.5699165, -0.6711166, 0.37284255
1566316801283, 10.0196495, 5.9468336, -7.917935, 1.5280225, 1.1635911, 0.7030745, -0.85966843, 0.3472762
1566316801293, 9.943915, 5.9468336, -7.8412943, 1.4250367, 1.3668326, 0.82344943, -1.0450244, 0.31318775
1566316801294, 10.063052, 6.1384354, -7.9059596, 1.0394385, 1.5416499, 0.91612744, -1.2048141, 0.29294774
1566316801301, 10.089725, 6.1312504, -7.9802055, 0.72569096, 1.6799343, 1.0034791, -1.320928, 0.26525086
1566316801302, 10.139536, 6.229446, -7.999366, 0.119750984, 1.7779295, 1.0535465, -1.4157364, 0.21624869
1566316801311, 10.168632, 6.1695704, -8.073611, -0.39278322, 1.8211658, 1.087635, -1.4455639, 0.20985709
1566316801312, 10.112113, 6.0402393, -8.047266, -1.0059083, 1.8212786, 1.071656, -1.4583471, 0.20453078
1566316801321, 9.99456, 5.760022, -8.049661, -1.3843213, 1.7870789, 1.0578076, -1.4263891, 0.20026971
1566316801322, 10.027814, 5.709727, -8.040081, -1.8202149, 1.7223963, 1.0130665, -1.3773869, 0.20772657
1566316801332, 9.959994, 5.5612354, -7.9682302, -2.186653, 1.6249226, 0.95447695, -1.2964269, 0.22050974
1566316801333, 10.019384, 5.4989653, -8.011341, -2.44292, 1.5146221, 0.87990844, -1.2080098, 0.24607609
1566316801346, 10.095873, 5.4127445, -8.061636, -2.7638526, 1.3853538, 0.7946873, -1.1025487, 0.26844665
1566316801347, 10.18583, 5.582791, -7.999366, -2.931504, 1.2401532, 0.71159667, -0.97897804, 0.27057716
1566316801356, 10.265239, 5.6618266, -8.032896, -2.9650342, 1.0763184, 0.61891866, -0.83516735, 0.2790993
1566316801357, 10.468269, 5.815108, -8.181387, -2.9722195, 0.91179913, 0.52411014, -0.68389976, 0.29827404
1566316801366, 10.412164, 5.743257, -8.183782, -2.907554, 0.767361, 0.45167214, -0.53795856, 0.3089267
1566316801367, 10.45611, 5.848638, -8.169412, -2.8955786, 0.6194657, 0.37284255, -0.38029942, 0.31638354
1566316801374, 10.427275, 5.9013286, -8.183782, -2.6321266, 0.5161105, 0.29933932, -0.25885928, 0.33129725
1566316801375, 10.296306, 5.8510327, -8.109536, -2.4525, 0.4183032, 0.23435818, -0.12037488, 0.32490566
1566316801386, 10.155592, 5.8965383, -7.9634404, -2.2249732, 0.37923115, 0.18642128, -0.0031957934, 0.330232
1566316801387, 10.046277, 5.8103175, -7.951465, -1.9854712, 0.36914757, 0.13635385, 0.10013486, 0.32810146
1566316801395, 10.026578, 5.8342676, -7.91075, -1.9782863, 0.39691502, 0.08841695, 0.19813919, 0.3323625
1566316801396, 9.92577, 5.774392, -7.846084, -1.9016455, 0.43055266, 0.054328486, 0.28336033, 0.31957933
1566316801406, 9.89921, 5.774392, -7.824529, -1.8513502, 0.48242015, 0.0010652645, 0.36325517, 0.3174488
1566316801407, 9.989882, 5.877378, -7.8652444, -1.84177, 0.51382977, -0.04261058, 0.41545314, 0.29933932
1566316801413, 9.82862, 5.7935524, -7.7478886, -1.7339942, 0.5654598, -0.09054748, 0.47510794, 0.29294774
1566316801415, 9.826923, 5.8007374, -7.7311234, -1.7747096, 0.6253256, -0.12676647, 0.5411543, 0.28655612
1566316801423, 9.874678, 5.829478, -7.790999, -1.6813037, 0.66956425, -0.16937704, 0.5933523, 0.25992453
1566316801425, 9.832872, 5.7767873, -7.814949, -1.4968873, 0.7324752, -0.19707392, 0.6583334, 0.25353295
1566316801436, 9.8622265, 5.604346, -7.951465, -1.6214283, 0.7805023, -0.23116238, 0.7073356, 0.23542345
1566316801438, 9.890026, 5.6761966, -7.9802055, -1.3819263, 0.7917072, -0.25033715, 0.71798825, 0.22050974
1566316801444, 9.86231, 5.5875807, -8.052056, -1.099314, 0.79013187, -0.23755397, 0.72437984, 0.20772657
1566316801445, 9.860741, 5.43909, -8.176597, -0.8909473, 0.7745366, -0.22690132, 0.7126619, 0.20133498
1566316801454, 9.948579, 5.345684, -8.351434, -0.80712163, 0.74620086, -0.21092236, 0.6849651, 0.20772657
1566316801455, 10.15041, 5.336104, -8.612491, -0.6179151, 0.70441777, -0.19068234, 0.6423545, 0.21731395
1566316801463, 10.350227, 5.2738333, -8.885523, -0.6011499, 0.6607551, -0.16724652, 0.59761333, 0.22690132
1566316801464, 10.4776535, 5.142107, -9.110655, -0.57959473, 0.6140859, -0.13848437, 0.54435015, 0.24820662
1566316801472, 10.635592, 5.127737, -9.290281, -0.7161109, 0.5696526, -0.11717909, 0.49428272, 0.257794
1566316801474, 10.827606, 5.1061816, -9.515413, -0.7879615, 0.5443554, -0.096939065, 0.4463458, 0.29614353
1566316801486, 10.926353, 5.0774417, -9.635164, -0.8765772, 0.51240104, -0.06924219, 0.38562572, 0.330232
1566316801487, 11.072286, 5.0510964, -9.81, -0.9196875, 0.49956816, -0.051132694, 0.33449304, 0.36751625
1566316801495, 11.050665, 4.984036, -9.831555, -0.78556645, 0.47903275, -0.01917476, 0.26205507, 0.40053943
1566316801496, 11.1210375, 5.0487013, -9.881851, -0.732876, 0.48022872, 0.00958738, 0.19707392, 0.43782368
1566316801503, 11.189937, 5.144502, -9.908196, -0.7592212, 0.48993018, 0.039414786, 0.112918034, 0.47510794
1566316801508, 11.162079, 5.3145485, -9.793235, -0.66342044, 0.51898175, 0.07456851, 0.035153728, 0.5123922
1566316801515, 11.128661, 5.494175, -9.656719, -0.6394702, 0.5310672, 0.10013486, -0.025566347, 0.5209143
1566316801517, 11.121974, 5.733677, -9.515413, -0.5292993, 0.5665805, 0.14061491, -0.09161274, 0.5411543
1566316801524, 11.237437, 5.9180937, -9.532178, -0.62749517, 0.5843138, 0.17257284, -0.14913702, 0.53795856
1566316801525, 11.127137, 5.9324636, -9.400452, -0.5005591, 0.6129984, 0.19387813, -0.1736381, 0.5550028
1566316801533, 10.9316225, 5.846243, -9.220825, -0.5460645, 0.6455168, 0.21518342, -0.20772657, 0.572047
1566316801535, 10.618019, 5.8007374, -8.875943, -0.55803955, 0.67240804, 0.23542345, -0.23648871, 0.5837649
1566316801544, 10.274004, 5.716912, -8.514295, -0.61552006, 0.7137947, 0.26525086, -0.24501082, 0.61572284
1566316801545, 10.088553, 5.7983427, -8.229287, -0.6610254, 0.7320902, 0.28336033, -0.24074976, 0.6306366
1566316801554, 9.807987, 5.807923, -7.8844047, -0.5484595, 0.738186, 0.30146983, -0.25885928, 0.6221144
1566316801555, 9.756872, 5.9324636, -7.7359133, -0.39757326, 0.7438896, 0.3334278, -0.25885928, 0.6125271
1566316801564, 9.608091, 5.9204884, -7.556287, -0.40715334, 0.74383914, 0.3653857, -0.257794, 0.5944176
1566316801566, 9.516166, 6.100115, -7.29523, -0.3544629, 0.74555576, 0.39414784, -0.25672874, 0.5784386
1566316801576, 9.453554, 6.2773466, -7.062913, -0.28261232, 0.72707015, 0.4346279, -0.24607609, 0.52837116
1566316801578, 9.454925, 6.3084817, -7.0365677, -0.2921924, 0.73752236, 0.4910869, -0.24394555, 0.49321744
1566316801585, 9.369782, 6.262976, -6.967112, -0.16525635, 0.72706467, 0.5251754, -0.23755397, 0.44315
1566316801586, 9.414484, 6.3899126, -6.9096317, -0.24189699, 0.743021, 0.57417756, -0.25566345, 0.39627838
1566316801595, 9.408701, 6.351592, -6.9311867, -0.37362307, 0.75917864, 0.62744075, -0.25353295, 0.34408042
1566316801596, 9.322345, 6.1480155, -6.976692, -0.6586304, 0.76018614, 0.6508766, -0.25672874, 0.2972088
1566316801605, 9.5015335, 6.2270513, -7.101233, -1.0370435, 0.7703954, 0.67324716, -0.27164245, 0.257794
1566316801607, 9.614717, 6.1384354, -7.2545147, -1.4609619, 0.7737861, 0.6870956, -0.2759035, 0.2247708
1566316801615, 9.897593, 6.1456203, -7.541917, -1.8202149, 0.7696519, 0.69029135, -0.28549087, 0.18535602
1566316801617, 10.229901, 6.2510014, -7.790999, -2.208208, 0.7381268, 0.66365975, -0.28549087, 0.15126756
1566316801628, 10.560297, 6.2869267, -8.035291, -2.7255323, 0.69952923, 0.6221144, -0.2972088, 0.11824436
1566316801630, 11.010396, 6.478528, -8.305928, -3.2045362, 0.6386578, 0.5603291, -0.29614353, 0.07882957
1566316801637, 11.43524, 6.5551686, -8.650811, -3.5997145, 0.57497245, 0.4910869, -0.29614353, 0.041545313
1566316801638, 11.711994, 6.591094, -8.907078, -3.7937112, 0.5239044, 0.41864893, -0.314253, 0.02130529
1566316801645, 12.089762, 6.701265, -9.230406, -4.006868, 0.47618636, 0.330232, -0.34301516, -0.0063915867
1566316801647, 12.352333, 6.8761015, -9.424402, -4.0595584, 0.45206517, 0.24820662, -0.37710363, -0.023435818
1566316801655, 12.559012, 6.952742, -9.589659, -4.174519, 0.46759406, 0.15765914, -0.43782368, -0.04580637
1566316801657, 12.598497, 6.9862723, -9.616004, -4.176914, 0.48646674, 0.0628506, -0.47723848, -0.070307456
1566316801665, 12.739165, 7.1395535, -9.599238, -4.378096, 0.5261619, -0.05219796, -0.5123922, -0.10759171
1566316801666, 12.838054, 7.278465, -9.582474, -4.4738965, 0.5650693, -0.18535602, -0.51665324, -0.13422333
1566316801675, 12.8699, 7.3886356, -9.544153, -4.4667115, 0.6239813, -0.3153183, -0.51452273, -0.1587244
1566316801676, 12.89026, 7.5946074, -9.431587, -4.4188113, 0.7143478, -0.47297743, -0.49428272, -0.20559604
1566316801685, 12.804944, 7.7598634, -9.326206, -4.095484, 0.7970307, -0.5933523, -0.47404268, -0.24181503
1566316801686, 12.574836, 7.795789, -9.14658, -3.7003052, 0.8883379, -0.7126619, -0.44208476, -0.29294774
1566316801695, 12.40765, 7.8700347, -9.041199, -3.2045362, 0.9822905, -0.8202536, -0.40586576, -0.3568636
1566316801698, 12.210542, 7.9682302, -8.899893, -2.5291407, 1.0599124, -0.9012137, -0.36751625, -0.41971418
1566316801708, 12.11511, 7.9945755, -8.878338, -2.0094216, 1.1196958, -0.9651296, -0.3323625, -0.46019423
1566316801709, 11.914363, 7.8412943, -8.840017, -1.5232325, 1.1705958, -1.0056096, -0.28655612, -0.52624065
1566316801718, 11.7593975, 7.7694435, -8.765772, -1.0394385, 1.2061594, -1.0258497, -0.23542345, -0.58909124
1566316801719, 11.618667, 7.671248, -8.715476, -0.43110353, 1.210716, -1.0077401, -0.21092236, -0.63702816
1566316801729, 11.3916, 7.4652762, -8.602911, 0.16765137, 1.2170738, -0.9864349, -0.18216023, -0.6892261
1566316801730, 11.282658, 7.3383403, -8.547825, 0.6179151, 1.2022429, -0.93423694, -0.14594123, -0.74248934
1566316801739, 11.128614, 7.0293827, -8.55501, 1.1160791, 1.1799145, -0.85540736, -0.15446335, -0.7978831
1566316801740, 11.010622, 6.8042507, -8.5119, 1.575923, 1.1526363, -0.777643, -0.14487597, -0.8383631
1566316801749, 10.774077, 6.605464, -8.3179035, 1.8058448, 1.1262572, -0.6849651, -0.16405073, -0.8788432
1566316801750, 10.571482, 6.215076, -8.327483, 1.9447559, 1.0964149, -0.58909124, -0.17150758, -0.9086706
1566316801759, 10.386575, 6.023474, -8.248447, 1.8872755, 1.0711625, -0.48149952, -0.1917476, -0.9374327
1566316801760, 10.129759, 5.637876, -8.205338, 1.8705103, 1.0546645, -0.386691, -0.21837921, -0.95660746
1566316801769, 9.969503, 5.2858086, -8.279583, 1.7028589, 1.021007, -0.30679616, -0.22690132, -0.9470201
1566316801770, 9.788894, 4.967271, -8.289163, 1.5615528, 0.99473, -0.21944448, -0.24607609, -0.93849796
1566316801781, 9.56577, 4.5816727, -8.293953, 1.3124708, 0.95988184, -0.1555286, -0.25246766, -0.9129316
1566316801782, 9.497816, 4.397256, -8.337064, 1.1687696, 0.9197922, -0.10013486, -0.26312032, -0.87564737
1566316801789, 9.297823, 4.2224197, -8.229287, 0.9484278, 0.8909942, -0.040480047, -0.27057716, -0.8479505
1566316801790, 9.264843, 3.9709425, -8.341853, 0.6945557, 0.8528831, 0.004261058, -0.28975195, -0.8021441
1566316801797, 9.071357, 3.784131, -8.231683, 0.45744875, 0.8134785, 0.043675844, -0.3121225, -0.7499462
1566316801798, 9.001919, 3.781736, -8.164622, 0.2682422, 0.7928717, 0.06391586, -0.330232, -0.71798825
1566316801808, 8.914, 3.7362306, -8.092772, -0.083825685, 0.75878316, 0.07456851, -0.3334278, -0.6775082
1566316801809, 9.046805, 3.8416114, -8.183782, -0.33530274, 0.72836906, 0.07350325, -0.33129725, -0.644485
1566316801820, 9.06024, 3.9709425, -8.131092, -0.4526587, 0.7186944, 0.07989483, -0.34514567, -0.62531024
1566316801821, 9.153088, 4.102669, -8.159832, -0.60354495, 0.68921703, 0.070307456, -0.33981937, -0.5954828
1566316801830, 9.244788, 4.2799, -8.162227, -0.72569096, 0.68700635, 0.06498113, -0.33449304, -0.5965481
1566316801831, 9.322954, 4.3086405, -8.224498, -0.8430469, 0.67232794, 0.058589544, -0.330232, -0.58269966
1566316801840, 9.358446, 4.3373804, -8.231683, -1.0035132, 0.6671422, 0.043675844, -0.32384038, -0.5816344
1566316801841, 9.226427, 4.184099, -8.155042, -1.0562036, 0.6561077, 0.03089267, -0.3291667, -0.56672066
1566316801851, 9.09839, 4.095484, -8.032896, -1.2166699, 0.62700206, 0.002130529, -0.32384038, -0.5368933
1566316801852, 8.895524, 3.915857, -7.8891945, -1.2478052, 0.6023795, -0.027696876, -0.3206446, -0.5091964
1566316801858, 8.944833, 3.8464015, -7.9634404, -1.341211, 0.5747237, -0.060720075, -0.30786142, -0.48149952
1566316801859, 9.11705, 3.9374123, -8.085587, -1.4968873, 0.53625566, -0.098004326, -0.28229508, -0.44528055
1566316801868, 9.1460495, 3.899092, -8.128696, -1.5399976, 0.50830084, -0.13848437, -0.24927188, -0.42077947
1566316801870, 9.117518, 3.9134622, -8.083191, -1.5735279, 0.48199186, -0.18002969, -0.2130529, -0.3930826
1566316801880, 9.135651, 3.9613624, -8.080796, -1.5711329, 0.4625493, -0.22050974, -0.16937704, -0.36964676
1566316801882, 9.120586, 4.0763235, -8.020921, -1.4944923, 0.44516584, -0.25885928, -0.11930962, -0.34194988
1566316801890, 9.069055, 4.1960745, -7.9394903, -1.2669654, 0.44350073, -0.30360037, -0.07137272, -0.3153183
1566316801892, 9.025933, 4.1314087, -7.92991, -1.2310401, 0.44814348, -0.3291667, -0.03089267, -0.30253512
1566316801898, 9.090679, 4.2439747, -7.9562554, -1.1520045, 0.46391016, -0.37390783, 0.02130529, -0.27377295
1566316801899, 9.146282, 4.4188113, -7.94907, -0.9699829, 0.46872965, -0.38242993, 0.06498113, -0.26312032
1566316801908, 9.152814, 4.512217, -7.932305, -0.70174074, 0.4819071, -0.39521313, 0.10333065, -0.25566345
1566316801909, 9.065132, 4.366121, -7.92512, -0.55324954, 0.47522736, -0.3898868, 0.12996227, -0.23861924
1566316801918, 9.077769, 4.2990603, -7.9849954, -0.4047583, 0.48086512, -0.40373522, 0.14807177, -0.21518342
1566316801919, 8.963203, 4.267925, -7.8772197, -0.2706372, 0.46392846, -0.3898868, 0.165116, -0.18961707
1566316801928, 8.99796, 4.2104445, -7.951465, -0.098195806, 0.45017475, -0.3930826, 0.16192019, -0.14807177
1566316801929, 9.132687, 4.277505, -8.068821, -0.05508545, 0.4178689, -0.37071204, 0.15233281, -0.11824436
1566316801940, 9.237632, 4.3254056, -8.162227, -0.05269043, 0.38450292, -0.34834146, 0.14061491, -0.082025364
1566316801941, 9.342591, 4.4451566, -8.217313, 0.019160157, 0.35790032, -0.33449304, 0.11611383, -0.05219796
1566316801949, 9.562633, 4.6654983, -8.346643, 0.102985844, 0.33207044, -0.3174488, 0.09374327, -0.026631612
1566316801950, 9.717865, 4.9624805, -8.353828, 0.15567628, 0.27640483, -0.26844665, 0.06498113, -0.010652645
1566316801959, 9.981908, 5.264253, -8.475974, 0.28979737, 0.2508149, -0.24927188, 0.027696876, 0.002130529
1566316801961, 10.12193, 5.4271145, -8.54064, 0.23950197, 0.2196125, -0.21944448, -0.0010652645, 0.008522116
1566316801971, 10.309888, 5.721702, -8.57417, 0.19878663, 0.20210007, -0.20133498, -0.017044231, 0.004261058
1566316801972, 10.500839, 5.9133034, -8.677156, 0.086220704, 0.17580415, -0.17470337, -0.01917476, 0.004261058
1566316801981, 10.516344, 6.0210795, -8.62207, 0.0023950196, 0.16340615, -0.15659387, -0.03834952, -0.026631612
1566316801982, 10.624277, 6.217471, -8.614885, -0.045505375, 0.15335739, -0.1438107, -0.04261058, -0.03195793
1566316801989, 10.540679, 6.1887307, -8.53106, -0.16286133, 0.15721947, -0.13741912, -0.049002163, -0.058589544
1566316801990, 10.652212, 6.236631, -8.634046, -0.16525635, 0.16557924, -0.14061491, -0.05965481, -0.06391586
1566316802000, 10.717275, 6.2581863, -8.693921, -0.33290774, 0.16265091, -0.13635385, -0.05539375, -0.06924219
1566316802001, 10.759761, 6.3635674, -8.665181, -0.4382886, 0.17612658, -0.14487597, -0.040480047, -0.09161274
1566316802012, 10.781061, 6.346802, -8.703502, -0.44547364, 0.17205918, -0.14487597, -0.014913702, -0.09161274
1566316802014, 10.799808, 6.334827, -8.729847, -0.54366946, 0.17933498, -0.1470065, 0.00958738, -0.10226539
1566316802019, 10.847727, 6.2270513, -8.859178, -0.64186525, 0.18830188, -0.14807177, 0.03195793, -0.111852765
1566316802020, 10.775391, 6.1695704, -8.818462, -0.5292993, 0.19599418, -0.1438107, 0.05219796, -0.12250541
1566316802029, 10.723379, 6.128855, -8.784932, -0.5029541, 0.2033344, -0.14487597, 0.056459017, -0.13102753
1566316802030, 10.75567, 6.095325, -8.851993, -0.4167334, 0.19305402, -0.12463594, 0.058589544, -0.13528858
1566316802040, 10.711424, 6.06419, -8.825647, -0.26105714, 0.18735032, -0.11824436, 0.0628506, -0.13102753
1566316802041, 10.757926, 6.023474, -8.897498, -0.5340894, 0.18285972, -0.1107875, 0.058589544, -0.13315806
1566316802049, 10.779608, 6.016289, -8.921448, -0.64186525, 0.18157682, -0.10439592, 0.037284255, -0.1438107
1566316802051, 10.82595, 6.05461, -8.943004, -0.75203615, 0.18886751, -0.11611383, 0.029827405, -0.14594123
1566316802060, 10.83242, 5.975574, -8.976534, -1.0274634, 0.20613073, -0.13315806, 0.039414786, -0.15233281
1566316802061, 11.009389, 5.989944, -9.148975, -1.2741505, 0.22100323, -0.15126756, 0.027696876, -0.1587244
1566316802073, 11.092319, 5.965994, -9.24717, -1.3915064, 0.25542146, -0.18216023, 0.020240024, -0.17789917
1566316802074, 11.196635, 5.910908, -9.374106, -1.5974782, 0.2865878, -0.23116238, 0.01917476, -0.16831179
1566316802081, 11.443566, 5.839058, -9.671089, -1.8250049, 0.33158657, -0.28122982, 0.026631612, -0.1736381
1566316802082, 11.697971, 6.023474, -9.848321, -1.8896705, 0.37675136, -0.3355583, 0.041545313, -0.16618125
1566316802090, 11.907465, 6.0019193, -10.111773, -1.8753004, 0.43045253, -0.3920173, 0.046871636, -0.17150758
1566316802091, 11.971559, 5.958809, -10.207574, -1.9016455, 0.4855269, -0.45380265, 0.070307456, -0.15765914
1566316802101, 11.99185, 5.9061184, -10.303374, -1.6621436, 0.52752644, -0.49534798, 0.09161274, -0.15659387
1566316802103, 11.929997, 5.8438478, -10.293795, -1.4873072, 0.56374335, -0.5368933, 0.11611383, -0.12676647
1566316802114, 11.718701, 5.716912, -10.162068, -1.1735597, 0.5840341, -0.5496765, 0.15126756, -0.12676647
1566316802115, 11.709289, 5.6690116, -10.214759, -0.7927515, 0.59685045, -0.5592638, 0.17789917, -0.10865697
1566316802121, 11.656379, 5.623506, -10.202784, -0.3879932, 0.5859816, -0.5411543, 0.2066613, -0.08841695
1566316802122, 11.497779, 5.585186, -10.049502, 0.1101709, 0.5655832, -0.50600064, 0.24501082, -0.06178534
1566316802131, 11.449265, 5.5372853, -10.013577, 0.3903882, 0.53920585, -0.46871635, 0.26312032, -0.04261058
1566316802132, 11.267386, 5.50136, -9.81, 0.6730005, 0.49766096, -0.40266997, 0.29188246, -0.018109497
1566316802144, 11.036792, 5.3025737, -9.637559, 0.90052736, 0.46659797, -0.34194988, 0.3174488, 0.0031957934
1566316802145, 10.673374, 5.005591, -9.357342, 1.1424243, 0.41939774, -0.25885928, 0.32810146, 0.035153728
1566316802151, 10.282942, 4.758904, -9.043594, 1.1424243, 0.38855293, -0.17044231, 0.34088463, 0.07563378
1566316802153, 9.911177, 4.5649076, -8.732242, 1.0681788, 0.38590518, -0.08841695, 0.35473305, 0.12357068
1566316802164, 9.5605, 4.481082, -8.377779, 1.0657837, 0.3735328, -0.018109497, 0.34514567, 0.14168017
1566316802166, 9.34662, 4.5529323, -8.123906, 0.7951465, 0.39914453, 0.05752428, 0.35579833, 0.17150758
1566316802173, 9.047051, 4.5840673, -7.774234, 0.62989014, 0.4172833, 0.128897, 0.35260254, 0.18216023
1566316802175, 8.907155, 4.6654983, -7.577842, 0.38320315, 0.44867998, 0.17470337, 0.36325517, 0.19707392
1566316802184, 8.688744, 4.7708793, -7.2616997, 0.026345216, 0.48088992, 0.22050974, 0.38029942, 0.1949434
1566316802186, 8.434322, 4.734954, -6.974297, -0.2778223, 0.5177645, 0.26312032, 0.39734364, 0.20240025
1566316802193, 8.30566, 4.8020144, -6.7539554, -0.5556446, 0.53414917, 0.294013, 0.4079963, 0.18002969
1566316802194, 8.355621, 4.9385304, -6.6821046, -0.8813672, 0.5351361, 0.30253512, 0.41545314, 0.14913702
1566316802201, 8.335394, 5.0654664, -6.5360084, -1.0490186, 0.5464599, 0.32170987, 0.42184472, 0.13102753
1566316802203, 8.363659, 5.0606766, -6.502478, -1.4346168, 0.53276324, 0.30999196, 0.4250405, 0.084155895
1566316802212, 8.493744, 5.3001785, -6.4162574, -1.698069, 0.5320044, 0.31851408, 0.42290998, 0.05219796
1566316802219, 8.695094, 5.4103494, -6.5144534, -1.9734962, 0.51385623, 0.29188246, 0.42290998, 0.0
1566316802222, 8.963956, 5.48699, -6.7395854, -2.196233, 0.5060298, 0.2695119, 0.42717105, -0.03089267
1566316802223, 9.18461, 5.5516553, -6.8832865, -2.4812403, 0.5147995, 0.23435818, 0.4495416, -0.08948222
1566316802235, 9.326573, 5.503755, -6.9934573, -2.7901978, 0.49371877, 0.18322548, 0.44208476, -0.12144015
1566316802236, 9.500705, 5.4127445, -7.192244, -3.03928, 0.4968805, 0.11717909, 0.44847634, -0.17896444
1566316802244, 9.683246, 5.2594633, -7.429351, -3.302732, 0.47770074, 0.05219796, 0.43249738, -0.19600865
1566316802246, 9.801043, 5.1900077, -7.580237, -3.415298, 0.47230634, -0.035153728, 0.4133226, -0.22583607
1566316802255, 10.019892, 5.007986, -7.8891945, -3.6164796, 0.4840112, -0.13741912, 0.39414784, -0.24501082
1566316802256, 10.223064, 4.9361353, -8.195757, -3.6021094, 0.49562854, -0.2396845, 0.35579833, -0.24820662
1566316802263, 10.433803, 4.91937, -8.432864, -3.6811452, 0.52988315, -0.33129725, 0.3323625, -0.24607609
1566316802265, 10.694465, 4.912185, -8.763377, -3.666775, 0.5796419, -0.4282363, 0.30679616, -0.24181503
1566316802273, 10.885371, 4.9457154, -9.081915, -3.3985329, 0.62373394, -0.5070659, 0.28016454, -0.23116238
1566316802275, 10.973155, 4.897815, -9.299861, -3.151846, 0.66105986, -0.572047, 0.24820662, -0.21944448
1566316802283, 11.040834, 4.8331494, -9.5561285, -2.687212, 0.6841735, -0.624245, 0.21624869, -0.17789917
1566316802285, 11.177036, 4.88105, -9.778865, -2.339934, 0.69179964, -0.65194184, 0.18216023, -0.14274544
1566316802295, 10.999501, 4.8091993, -9.707015, -1.9064356, 0.69288474, -0.6668556, 0.15126756, -0.111852765
1566316802297, 10.831456, 4.8091993, -9.596844, -1.4465919, 0.6834301, -0.6711166, 0.113983296, -0.060720075
1566316802304, 10.712122, 4.6750784, -9.596844, -0.8909473, 0.6531948, -0.64555025, 0.099069595, -0.010652645
1566316802306, 10.811331, 4.754114, -9.692644, -0.57959473, 0.62486094, -0.61678815, 0.09374327, 0.035153728
1566316802315, 10.557265, 4.754114, -9.424402, -0.18681154, 0.58450407, -0.57311225, 0.06924219, 0.09161274
1566316802320, 10.39955, 4.6583133, -9.292676, 0.31135255, 0.5469249, -0.52411014, 0.066046394, 0.14168017
1566316802323, 10.197321, 4.605623, -9.079519, 0.57959473, 0.4880969, -0.44741106, 0.05752428, 0.18642128
1566316802326, 10.02714, 4.6199927, -8.851993, 0.91729254, 0.4402572, -0.36218992, 0.051132694, 0.24501082
1566316802336, 9.806372, 4.648733, -8.55501, 1.1687696, 0.41212106, -0.27803403, 0.0479369, 0.30040458
1566316802339, 9.637495, 4.8259645, -8.229287, 1.3675562, 0.3801069, -0.16831179, 0.053263225, 0.33662358
1566316802344, 9.553198, 4.976851, -8.011341, 1.5208374, 0.3835041, -0.07882957, 0.06498113, 0.36964676
1566316802347, 9.42344, 5.2187476, -7.690408, 1.5567628, 0.3915727, 0.034088463, 0.082025364, 0.38136467
1566316802353, 9.511213, 5.5324955, -7.577842, 1.5591577, 0.41590223, 0.12250541, 0.10439592, 0.3834952
1566316802356, 9.495789, 5.841453, -7.3622904, 1.3579761, 0.4324121, 0.19707392, 0.13315806, 0.36112466
1566316802363, 9.428683, 5.973179, -7.213799, 1.0873389, 0.478906, 0.29614353, 0.16618125, 0.33768883
1566316802365, 9.493432, 6.1312504, -7.204219, 0.7951465, 0.50888544, 0.35792887, 0.20772657, 0.29614353
1566316802373, 9.390707, 6.1073003, -7.117998, 0.46942386, 0.54128325, 0.4101268, 0.23329292, 0.26525086
1566316802375, 9.31013, 6.023474, -7.0988383, 0.05269043, 0.567743, 0.4495416, 0.2545982, 0.23542345
1566316802383, 9.300996, 5.8965383, -7.1874537, -0.28261232, 0.5904199, 0.48363006, 0.25885928, 0.21837921
1566316802385, 9.228908, 5.767207, -7.165899, -0.7496411, 0.5949757, 0.49960902, 0.25353295, 0.20026971
1566316802394, 9.17017, 5.4534597, -7.27128, -1.2166699, 0.5782551, 0.4910869, 0.24501082, 0.18216023
1566316802398, 9.205219, 5.233118, -7.3958206, -1.6286134, 0.5537623, 0.46978164, 0.23222765, 0.17896444
1566316802403, 9.146952, 4.998406, -7.4006104, -1.9782863, 0.52960896, 0.44208476, 0.21198763, 0.20026971
1566316802404, 9.284447, 4.87626, -7.527547, -2.3998096, 0.492947, 0.40373522, 0.18961707, 0.20985709
1566316802417, 9.357842, 4.7876444, -7.6137676, -2.5842261, 0.45761636, 0.35260254, 0.17789917, 0.23116238
1566316802418, 9.593543, 4.91937, -7.7526784, -2.7806177, 0.41155759, 0.29294774, 0.15339808, 0.24501082
1566316802424, 9.672852, 4.864285, -7.8556643, -2.8620484, 0.37929547, 0.23435818, 0.13209279, 0.26738137
1566316802425, 9.928692, 5.130132, -8.0017605, -2.8692336, 0.35451704, 0.18429075, 0.12250541, 0.27696875
1566316802434, 10.067889, 5.101392, -8.190968, -2.8716285, 0.32295263, 0.13848437, 0.08841695, 0.27803403
1566316802435, 10.022421, 5.233118, -8.1143265, -2.687212, 0.3083329, 0.09161274, 0.0628506, 0.2876214
1566316802445, 10.070472, 5.132527, -8.229287, -2.7111623, 0.31091493, 0.03834952, 0.041545313, 0.3057309
1566316802447, 10.0488825, 5.216353, -8.171807, -2.6441016, 0.31707862, -0.008522116, 0.01917476, 0.31638354
1566316802455, 10.09233, 5.4199295, -8.123906, -2.5459058, 0.3322635, -0.05752428, 0.011717909, 0.3270362
1566316802456, 10.1642, 5.5229154, -8.147857, -2.5339308, 0.34556133, -0.113983296, 0.0127831735, 0.32597092
1566316802465, 10.236653, 5.6618266, -8.155042, -2.4956105, 0.37033686, -0.16298546, 0.02876214, 0.33129725
1566316802466, 10.334712, 5.6857767, -8.315508, -2.308799, 0.3851502, -0.21092236, 0.049002163, 0.31851408
1566316802475, 10.419666, 5.8989334, -8.3179035, -2.1411476, 0.42102212, -0.25566345, 0.070307456, 0.3270362
1566316802476, 10.358807, 5.8127127, -8.339458, -1.9926564, 0.45225966, -0.2876214, 0.10652645, 0.3323625
1566316802485, 10.178483, 5.6426663, -8.296348, -1.7124391, 0.48352915, -0.3089267, 0.12463594, 0.350472
1566316802487, 10.091937, 5.50136, -8.3322735, -1.468147, 0.5180319, -0.33129725, 0.15339808, 0.36751625
1566316802496, 9.984131, 5.5061502, -8.250843, -1.1352394, 0.546273, -0.3323625, 0.1917476, 0.3888215
1566316802498, 9.92907, 5.465435, -8.231683, -0.977168, 0.5718893, -0.33129725, 0.221575, 0.4101268
1566316802507, 9.7753, 5.484595, -8.061636, -0.69695073, 0.59558666, -0.314253, 0.25353295, 0.43782368
1566316802508, 9.639106, 5.357659, -8.006551, -0.32093263, 0.5921472, -0.2790993, 0.27803403, 0.44208476
1566316802518, 9.668532, 5.4199295, -8.006551, -0.0047900393, 0.60415524, -0.24501082, 0.30040458, 0.46339005
1566316802520, 9.567582, 5.49657, -7.829319, 0.16765137, 0.6018697, -0.19600865, 0.31957933, 0.4708469
1566316802527, 9.639043, 5.6594315, -7.795789, 0.3281177, 0.5944042, -0.13422333, 0.3355583, 0.47191215
1566316802530, 9.639659, 5.6905665, -7.7622585, 0.5364844, 0.58935314, -0.0628506, 0.34301516, 0.47510794
1566316802535, 9.578409, 5.702542, -7.664063, 0.6993457, 0.58056915, 0.0127831735, 0.34088463, 0.46978164
1566316802540, 9.589426, 5.728887, -7.6592727, 0.68737066, 0.58735013, 0.09374327, 0.3323625, 0.47510794
1566316802550, 9.520828, 5.743257, -7.551497, 0.79754156, 0.5985924, 0.17044231, 0.3121225, 0.48149952
1566316802552, 9.401311, 5.621111, -7.510782, 0.613125, 0.6150138, 0.2545982, 0.28016454, 0.48469532
1566316802556, 9.4059105, 5.611531, -7.5323367, 0.49576905, 0.6289157, 0.32277513, 0.24394555, 0.48149952
1566316802558, 9.295157, 5.47741, -7.5035963, 0.3065625, 0.6638068, 0.3920173, 0.20133498, 0.49641323
1566316802569, 9.289751, 5.5444703, -7.453301, 0.081430666, 0.6817401, 0.4346279, 0.1587244, 0.5006743
1566316802571, 9.381865, 5.630691, -7.4988065, -0.28740236, 0.7185325, 0.49002165, 0.1257012, 0.51026165
1566316802577, 9.481719, 5.7312818, -7.5251517, -0.65384036, 0.7198287, 0.515588, 0.08948222, 0.49428272
1566316802579, 9.598301, 5.961204, -7.470066, -0.8885523, 0.71369934, 0.5273059, 0.05965481, 0.47723848
1566316802587, 9.824424, 6.12646, -7.599397, -1.1112891, 0.71571267, 0.5475459, 0.040480047, 0.45912898
1566316802588, 9.914198, 6.229446, -7.5874224, -1.3843213, 0.70918214, 0.5635249, 0.0127831735, 0.43036684
1566316802601, 10.101005, 6.3923073, -7.673643, -1.5112574, 0.69498444, 0.5571333, -0.002130529, 0.41545314
1566316802605, 10.220541, 6.437813, -7.7383084, -1.7699195, 0.672192, 0.5539375, -0.01917476, 0.38029942
1566316802608, 10.353144, 6.6413894, -7.726333, -1.839375, 0.65784544, 0.55287224, -0.022370555, 0.35579833
1566316802610, 10.420371, 6.70366, -7.7359133, -1.949546, 0.62835526, 0.5390238, -0.03834952, 0.3206446
1566316802617, 10.586778, 6.8689165, -7.776629, -2.1028273, 0.6061327, 0.5305017, -0.037284255, 0.2908172
1566316802620, 10.648195, 6.9024467, -7.829319, -2.1076174, 0.580402, 0.5209143, -0.035153728, 0.25353295
1566316802629, 10.711888, 6.861731, -7.8772197, -2.3686745, 0.52612746, 0.47617322, -0.022370555, 0.22264028
1566316802632, 10.820674, 6.940767, -7.932305, -2.44771, 0.4880655, 0.44741106, -0.0053263223, 0.1949434
1566316802638, 10.870884, 6.959927, -7.9227247, -2.6393116, 0.43306503, 0.40053943, 0.023435818, 0.16298546
1566316802640, 10.905609, 6.8737063, -8.028106, -2.6896071, 0.38066477, 0.34834146, 0.056459017, 0.14274544
1566316802649, 10.852516, 6.821016, -7.9538603, -2.8261232, 0.3333035, 0.29827404, 0.09161274, 0.11717909
1566316802652, 10.9034195, 6.835386, -7.937095, -3.027305, 0.29446423, 0.23116238, 0.14807177, 0.10652645
1566316802658, 10.755429, 6.6988697, -7.8436894, -3.046465, 0.26221523, 0.17576863, 0.17789917, 0.07882957
1566316802661, 10.718863, 6.6749196, -7.838899, -2.9817994, 0.24311146, 0.11611383, 0.2034655, 0.06498113
1566316802667, 10.644731, 6.6677346, -7.719148, -3.04407, 0.24969262, 0.049002163, 0.2428803, 0.03089267
1566316802670, 10.685064, 6.6030693, -7.774234, -3.182981, 0.28475255, -0.022370555, 0.28336033, 0.017044231
1566316802678, 10.585624, 6.574329, -7.7311234, -3.0105398, 0.3409695, -0.08841695, 0.3291667, -0.00958738
1566316802680, 10.429746, 6.488108, -7.683223, -2.7662477, 0.38588464, -0.14061491, 0.35792887, -0.03195793
1566316802687, 10.413518, 6.5072684, -7.688013, -2.6441016, 0.42977184, -0.1917476, 0.38029942, -0.05752428
1566316802689, 10.256268, 6.3875175, -7.647298, -2.430945, 0.46360672, -0.22583607, 0.39734364, -0.0777643
1566316802697, 10.230818, 6.2965064, -7.7622585, -2.184258, 0.49425974, -0.26205507, 0.406931, -0.10013486
1566316802699, 10.193074, 6.2581863, -7.805369, -1.951941, 0.51099837, -0.27483824, 0.4133226, -0.12144015
1566316802707, 10.304666, 6.2581863, -7.9849954, -1.8058448, 0.5000835, -0.28442562, 0.38456047, -0.14594123
1566316802710, 10.468251, 6.2965064, -8.214917, -1.5663428, 0.4953503, -0.28229508, 0.37390783, -0.16085494
1566316802717, 10.611504, 6.2342362, -8.4376545, -1.5950831, 0.4960771, -0.28442562, 0.36005938, -0.18855181
1566316802719, 10.785969, 6.1552005, -8.715476, -1.5783179, 0.48647726, -0.27803403, 0.34408042, -0.20240025
1566316802730, 10.89034, 6.0498195, -8.923843, -1.5376027, 0.48525688, -0.27696875, 0.34194988, -0.20453078
1566316802732, 11.158537, 5.9300685, -9.295072, -1.7172291, 0.47854686, -0.28229508, 0.3291667, -0.20240025
1566316802738, 11.087047, 5.736072, -9.333391, -1.705254, 0.46509013, -0.27057716, 0.33662358, -0.17257284
1566316802739, 11.104975, 5.4175344, -9.5633135, -1.585503, 0.44642335, -0.26525086, 0.33129725, -0.13848437
1566316802752, 11.10203, 5.271438, -9.644744, -1.5639478, 0.4102845, -0.25246766, 0.30786142, -0.099069595
1566316802753, 11.079245, 5.216353, -9.673484, -1.4010864, 0.36875078, -0.24394555, 0.2727077, -0.04580637
1566316802761, 11.104966, 5.1947975, -9.74773, -1.1472144, 0.3255564, -0.2247708, 0.23542345, 0.0063915867
1566316802762, 11.141412, 5.221143, -9.7740755, -1.1567944, 0.26638216, -0.19068234, 0.17789917, 0.054328486
1566316802772, 11.201015, 5.350474, -9.788445, -1.0106983, 0.23901127, -0.17470337, 0.13422333, 0.09267801
1566316802773, 11.262381, 5.585186, -9.733359, -0.9532178, 0.21403597, -0.14168017, 0.096939065, 0.12783173
1566316802782, 11.3017025, 5.750442, -9.68067, -0.97237796, 0.2035631, -0.1257012, 0.068176925, 0.14487597
1566316802783, 11.273473, 5.965994, -9.527389, -0.852627, 0.19229129, -0.083090626, 0.03195793, 0.17044231
1566316802792, 11.22092, 6.109695, -9.371712, -0.8669971, 0.1802124, -0.06711166, 0.0010652645, 0.16724652
1566316802793, 11.190639, 6.219866, -9.266331, -0.82388675, 0.19406533, -0.05539375, -0.03195793, 0.18322548
1566316802800, 11.141079, 6.320457, -9.137, -0.8310718, 0.19242404, -0.036218993, -0.060720075, 0.17896444
1566316802802, 11.185188, 6.5479836, -9.041199, -0.6993457, 0.20028389, -0.007456851, -0.09374327, 0.1768339
1566316802810, 11.096015, 6.581514, -8.907078, -0.6849756, 0.20269719, 0.013848438, -0.11824436, 0.16405073
1566316802811, 11.004801, 6.6509695, -8.744217, -0.6394702, 0.20714943, 0.035153728, -0.14594123, 0.14274544
1566316802819, 11.009851, 6.7898808, -8.653206, -0.48618898, 0.21791103, 0.06711166, -0.15978967, 0.13209279
1566316802821, 10.891844, 6.8114357, -8.48316, -0.5221143, 0.2211957, 0.08735169, -0.1768339, 0.10013486
1566316802830, 10.808254, 6.8928666, -8.310719, -0.488584, 0.24329811, 0.12250541, -0.19920446, 0.06711166
1566316802832, 10.725707, 6.8737063, -8.222102, -0.43589357, 0.26653334, 0.16724652, -0.20453078, 0.035153728
1566316802839, 10.587773, 6.7898808, -8.1143265, -0.39517823, 0.3038339, 0.20559604, -0.22370553, -0.0010652645
1566316802843, 10.383264, 6.6773148, -7.94428, -0.33769777, 0.36029726, 0.25672874, -0.25033715, -0.035153728
1566316802853, 10.112013, 6.4330225, -7.798184, -0.23950197, 0.41238117, 0.30146983, -0.27377295, -0.06498113
1566316802855, 9.897053, 6.248606, -7.671248, -0.24189699, 0.48439905, 0.3536678, -0.3174488, -0.09374327
1566316802859, 9.6855955, 6.198311, -7.436536, -0.29937744, 0.54620236, 0.4016047, -0.35579833, -0.10226539
1566316802861, 9.517514, 5.879773, -7.472461, -0.4167334, 0.61348414, 0.4463458, -0.4079963, -0.10333065
1566316802873, 9.326115, 5.736072, -7.335945, -0.50774413, 0.67215824, 0.48469532, -0.44528055, -0.13635385
1566316802874, 9.33153, 5.724097, -7.321575, -0.84065187, 0.7236534, 0.52411014, -0.47617322, -0.14913702
1566316802882, 9.353019, 5.712122, -7.340735, -0.98195803, 0.7673698, 0.551807, -0.50600064, -0.16831179
1566316802884, 9.43583, 5.7839723, -7.3622904, -1.1735597, 0.8115721, 0.57098174, -0.5454154, -0.18748654
1566316802892, 9.343612, 5.6522465, -7.311995, -1.3747413, 0.8477966, 0.5837649, -0.5763081, -0.21411815
1566316802894, 9.483418, 5.611531, -7.4772515, -1.5926881, 0.86693615, 0.58696073, -0.5954828, -0.22903186
1566316802900, 9.5811, 5.611531, -7.5251517, -1.9184108, 0.8862027, 0.5816344, -0.6221144, -0.24501082
1566316802901, 9.877901, 5.724097, -7.776629, -2.0812721, 0.9055995, 0.572047, -0.6508766, -0.26312032
1566316802910, 10.072267, 5.640271, -7.9945755, -2.3926246, 0.90059775, 0.5411543, -0.66579026, -0.27377295
1566316802912, 10.28517, 5.6426663, -8.217313, -2.5339308, 0.90997595, 0.5134575, -0.69135666, -0.294013
1566316802923, 10.432405, 5.6785917, -8.313113, -2.7351124, 0.9082334, 0.48043427, -0.71159667, -0.29614353
1566316802925, 10.69675, 5.6785917, -8.595725, -2.8788135, 0.8844403, 0.4293016, -0.716923, -0.28975195
1566316802930, 10.903804, 5.695357, -8.768167, -3.0943654, 0.87560135, 0.3834952, -0.7275756, -0.30040458
1566316802933, 11.08626, 5.752837, -8.914263, -3.2165112, 0.8604172, 0.3323625, -0.737163, -0.294013
1566316802943, 11.047282, 5.688172, -8.914263, -3.1973512, 0.8228263, 0.25353295, -0.72970617, -0.28336033
1566316802945, 11.27048, 5.7935524, -9.06994, -3.3458424, 0.7866774, 0.1917476, -0.716923, -0.2609898
1566316802952, 11.284805, 5.7911572, -9.057964, -3.4296682, 0.76894236, 0.12357068, -0.7126619, -0.2609898
1566316802954, 11.279714, 5.719307, -9.096285, -3.432063, 0.73500466, 0.029827405, -0.6945524, -0.23861924
1566316802963, 11.154394, 5.601951, -8.966953, -3.5542092, 0.7176357, -0.07350325, -0.67963874, -0.21837921
1566316802965, 11.058217, 5.5684204, -8.840017, -3.6236646, 0.6963751, -0.1917476, -0.6423545, -0.18855181
1566316802971, 10.952441, 5.599556, -8.665181, -3.6763551, 0.7089805, -0.30466563, -0.6146576, -0.17896444
1566316802973, 10.958928, 5.9468336, -8.523875, -3.4751735, 0.7215128, -0.4101268, -0.5656554, -0.18002969
1566316802981, 10.807521, 6.0617948, -8.365804, -3.173401, 0.7566483, -0.51665324, -0.52411014, -0.17576863
1566316802983, 10.698571, 6.1743608, -8.279583, -2.7901978, 0.7989156, -0.6103965, -0.47404268, -0.20240025
1566316802990, 10.587622, 6.320457, -8.198153, -2.2225783, 0.8271982, -0.6785734, -0.42397526, -0.20985709
1566316802992, 10.544912, 6.473738, -8.095166, -1.9375709, 0.8482168, -0.72651035, -0.3717773, -0.23116238
1566316803001, 10.235773, 6.342012, -7.92991, -1.2909156, 0.8504607, -0.7456851, -0.32170987, -0.25246766
1566316803002, 10.201182, 6.368357, -7.9466753, -0.5987549, 0.85128033, -0.75420725, -0.28442562, -0.27377295
1566316803011, 9.969289, 6.2941117, -7.7287283, -0.1939966, 0.841629, -0.7435546, -0.24501082, -0.3089267
1566316803012, 9.975271, 6.262976, -7.7598634, 0.2562671, 0.8166314, -0.716923, -0.20772657, -0.33129725
1566316803021, 9.928913, 6.2917166, -7.6592727, 0.57719976, 0.7826251, -0.6711166, -0.1736381, -0.36325517
1566316803024, 9.939928, 6.231841, -7.690408, 0.90771246, 0.7408958, -0.61572284, -0.14807177, -0.38456047
1566316803036, 9.795117, 6.0761647, -7.592212, 1.1759547, 0.69896775, -0.5603291, -0.12250541, -0.39947417
1566316803037, 9.665961, 5.951624, -7.486831, 1.3986914, 0.64435995, -0.47191215, -0.09054748, -0.4293016
1566316803043, 9.607183, 5.7911572, -7.5155716, 1.5088624, 0.59636927, -0.3898868, -0.08522116, -0.44315
1566316803044, 9.652112, 5.8007374, -7.553892, 1.5663428, 0.54118896, -0.30360037, -0.07882957, -0.44101948
1566316803055, 9.50014, 5.4989653, -7.577842, 1.6094532, 0.5202102, -0.23116238, -0.07989483, -0.45912898
1566316803057, 9.474968, 5.3935843, -7.6401124, 1.5208374, 0.49366242, -0.15339808, -0.09161274, -0.46019423
1566316803063, 9.387912, 5.271438, -7.647298, 1.3651612, 0.46428302, -0.07563378, -0.111852765, -0.44421527
1566316803065, 9.249191, 5.096602, -7.6329274, 1.1448194, 0.45466954, -0.00958738, -0.13315806, -0.4346279
1566316803076, 9.177393, 5.0534916, -7.6017923, 0.9484278, 0.45382765, 0.03834952, -0.16831179, -0.41971418
1566316803079, 9.118967, 4.991221, -7.599397, 0.70174074, 0.45861086, 0.082025364, -0.1949434, -0.406931
1566316803082, 9.165605, 5.0582814, -7.6353226, 0.3520679, 0.46373153, 0.1107875, -0.221575, -0.3920173
1566316803084, 9.113061, 4.967271, -7.6401124, 0.05269043, 0.4816527, 0.13635385, -0.24607609, -0.39095205
1566316803095, 9.120475, 5.0894165, -7.565867, -0.19639161, 0.49102682, 0.14594123, -0.2727077, -0.38136467
1566316803097, 9.0879, 5.096602, -7.510782, -0.45026368, 0.48993596, 0.12996227, -0.28868666, -0.37390783
1566316803103, 9.1127, 5.1540823, -7.4820414, -0.7041358, 0.4935854, 0.11717909, -0.30146983, -0.37284255
1566316803105, 9.212185, 5.142107, -7.585027, -0.9436377, 0.4835186, 0.098004326, -0.2972088, -0.3685815
1566316803115, 9.202999, 5.134922, -7.565867, -1.0418335, 0.47770667, 0.082025364, -0.30679616, -0.3568636
1566316803117, 9.212404, 5.134922, -7.580237, -1.0202783, 0.46528283, 0.054328486, -0.29614353, -0.35473305
1566316803123, 9.285828, 5.1468973, -7.6329274, -1.214275, 0.4638233, 0.026631612, -0.29507825, -0.3568636
1566316803126, 9.392873, 5.2594633, -7.680828, -1.2525953, 0.45862946, -0.010652645, -0.28655612, -0.35792887
1566316803132, 9.301941, 5.2019825, -7.5874224, -1.3771362, 0.44736794, -0.033023197, -0.27057716, -0.35473305
1566316803135, 9.439205, 5.0894165, -7.810159, -1.4825171, 0.43109134, -0.07456851, -0.2396845, -0.350472
1566316803143, 9.4147, 5.0415163, -7.812554, -1.477727, 0.40968525, -0.12357068, -0.2034655, -0.3334278
1566316803153, 9.478214, 4.9289503, -7.941885, -1.5711329, 0.3875001, -0.15765914, -0.16085494, -0.3153183
1566316803154, 9.417267, 4.790039, -7.9562554, -1.5615528, 0.37518033, -0.19600865, -0.12357068, -0.29507825
1566316803157, 9.431891, 4.8044095, -8.004155, -1.346001, 0.3590526, -0.2247708, -0.083090626, -0.26738137
1566316803166, 9.506247, 4.854705, -8.073611, -1.2717555, 0.3536758, -0.257794, -0.046871636, -0.23755397
1566316803168, 9.461725, 4.773274, -8.0999565, -1.0633887, 0.35400775, -0.27696875, -0.02130529, -0.21944448
1566316803175, 9.593043, 4.782854, -8.265213, -0.9148975, 0.3473236, -0.29614353, 0.011717909, -0.18109496
1566316803177, 9.547241, 4.766089, -8.236472, -0.7711963, 0.34530675, -0.30679616, 0.043675844, -0.15233281
1566316803188, 9.390897, 4.617598, -8.150251, -0.66342044, 0.33743334, -0.314253, 0.068176925, -0.10226539
1566316803190, 9.275212, 4.5649076, -8.066426, -0.3520679, 0.3417922, -0.32384038, 0.08628642, -0.06711166
1566316803193, 9.111829, 4.6774735, -7.817344, -0.18920656, 0.32144168, -0.30466563, 0.0958738, -0.036218993
1566316803195, 9.152301, 4.751719, -7.822134, 0.0023950196, 0.30897444, -0.29188246, 0.101200126, -0.0053263223
1566316803206, 9.127102, 4.9002104, -7.695198, 0.27542725, 0.29097325, -0.2695119, 0.10865697, 0.014913702
1566316803208, 9.2647, 5.151687, -7.690408, 0.3903882, 0.25726083, -0.23329292, 0.10652645, 0.020240024
1566316803215, 9.274513, 5.221143, -7.647298, 0.5245093, 0.22232403, -0.19387813, 0.10333065, 0.034088463
1566316803217, 9.348319, 5.4223247, -7.5946074, 0.55803955, 0.18741693, -0.15765914, 0.099069595, 0.02130529
1566316803226, 9.47906, 5.5780005, -7.6401124, 0.60594, 0.15353487, -0.111852765, 0.10439592, 0.0127831735
1566316803230, 9.464583, 5.6450615, -7.5706573, 0.62989014, 0.10966534, -0.06924219, 0.083090626, 0.018109497
1566316803234, 9.4847765, 5.733677, -7.5203614, 0.728086, 0.055852782, -0.01917476, 0.051132694, 0.011717909
1566316803237, 9.446176, 5.745652, -7.479646, 0.5221143, 0.016571626, 0.004261058, 0.015978966, -0.0010652645
1566316803246, 9.604168, 5.877378, -7.585027, 0.4047583, 0.040156372, 0.034088463, -0.020240024, -0.0063915867
1566316803249, 9.752017, 6.0258694, -7.664063, 0.22992188, 0.08546051, 0.070307456, -0.046871636, -0.0127831735
1566316803255, 9.788627, 5.989944, -7.7407036, 0.13891114, 0.12819076, 0.09374327, -0.080960095, -0.033023197
1566316803258, 9.94663, 6.1073003, -7.8508744, 0.009580079, 0.16666539, 0.12144015, -0.10546118, -0.043675844
1566316803264, 9.937699, 6.0570045, -7.8772197, -0.14130616, 0.1950976, 0.13422333, -0.128897, -0.058589544
1566316803267, 9.932668, 6.0570045, -7.8700347, -0.1820215, 0.23138563, 0.1555286, -0.15978967, -0.06178534
1566316803274, 10.137412, 6.1312504, -8.066426, -0.3281177, 0.2583766, 0.16405073, -0.18429075, -0.07669904
1566316803277, 10.149885, 6.1863356, -8.037686, -0.38080812, 0.27850094, 0.17257284, -0.2034655, -0.07989483
1566316803285, 10.237967, 6.320457, -8.040081, -0.4742139, 0.29554132, 0.17789917, -0.21837921, -0.08948222
1566316803288, 10.290287, 6.327642, -8.090376, -0.62989014, 0.3098528, 0.18216023, -0.221575, -0.11717909
1566316803294, 10.329511, 6.4593678, -8.011341, -0.8909473, 0.30840465, 0.1768339, -0.221575, -0.12144015
1566316803295, 10.356533, 6.337222, -8.126302, -1.0298585, 0.29600364, 0.16085494, -0.20559604, -0.13954964
1566316803304, 10.406951, 6.461763, -8.080796, -1.1184741, 0.28139722, 0.13102753, -0.18642128, -0.165116
1566316803306, 10.38335, 6.375542, -8.073611, -1.4082716, 0.2526025, 0.098004326, -0.16085494, -0.16831179
1566316803314, 10.418097, 6.4330225, -8.073611, -1.4034815, 0.22212744, 0.05752428, -0.11504856, -0.18109496
1566316803319, 10.427976, 6.2965064, -8.159832, -1.585503, 0.22032697, 0.018109497, -0.07989483, -0.20453078
1566316803327, 10.516574, 6.3970976, -8.176597, -1.6789087, 0.20779757, -0.03089267, -0.02876214, -0.2034655
1566316803329, 10.485726, 6.2797413, -8.236472, -1.6357985, 0.24377804, -0.07669904, 0.024501082, -0.23009712
1566316803338, 10.499502, 6.2773466, -8.241262, -1.707649, 0.2729531, -0.12676647, 0.06711166, -0.23222765
1566316803340, 10.457947, 6.0737696, -8.353828, -1.6405884, 0.3015978, -0.1555286, 0.10652645, -0.23542345
1566316803351, 10.509582, 6.08814, -8.425679, -1.5471827, 0.358469, -0.21198763, 0.15339808, -0.24501082
1566316803353, 10.760188, 6.1767554, -8.669971, -1.5687379, 0.4065139, -0.24927188, 0.19707392, -0.25353295
1566316803354, 11.000074, 6.1863356, -8.959768, -1.5663428, 0.45260704, -0.29827404, 0.2247708, -0.25566345
1566316803356, 11.329443, 6.1528053, -9.369317, -1.6477735, 0.50307333, -0.350472, 0.24927188, -0.2609898
1566316803369, 11.565199, 6.198311, -9.627979, -1.6238233, 0.5506727, -0.39840892, 0.28229508, -0.2545982
1566316803370, 11.85154, 6.198311, -9.956097, -1.707649, 0.589072, -0.43995422, 0.30040458, -0.2514024
1566316803379, 12.119863, 6.2773466, -10.241104, -1.6142433, 0.6357746, -0.49215218, 0.32490566, -0.23755397
1566316803380, 12.221652, 6.183941, -10.4566555, -1.336421, 0.6750314, -0.53476274, 0.3472762, -0.221575
1566316803387, 12.236152, 6.0593996, -10.566827, -1.1615845, 0.6990027, -0.5613944, 0.3685815, -0.19387813
1566316803389, 12.086194, 5.951624, -10.485396, -0.8430469, 0.7086339, -0.5752428, 0.37710363, -0.17044231
1566316803395, 11.9399395, 5.7815776, -10.437495, -0.4406836, 0.71068233, -0.5816344, 0.38456047, -0.13741912
1566316803397, 11.808783, 5.6354814, -10.375225, -0.2083667, 0.6934454, -0.57311225, 0.37816888, -0.096939065
1566316803409, 11.453725, 5.4510646, -10.071057, 0.21794678, 0.66857976, -0.5486112, 0.37710363, -0.06178534
1566316803410, 11.218805, 5.4055595, -9.814791, 0.55803955, 0.63759613, -0.50600064, 0.38775626, -0.011717909
1566316803418, 10.821425, 5.257068, -9.410032, 0.9580079, 0.5912611, -0.45060685, 0.38242993, 0.017044231
1566316803420, 10.633564, 5.3289185, -9.093889, 1.4058765, 0.53069735, -0.36325517, 0.38242993, 0.058589544
1566316803425, 10.449678, 5.3313136, -8.820857, 1.7220191, 0.47879225, -0.26631612, 0.386691, 0.09374327
1566316803428, 10.281414, 5.479805, -8.466394, 1.9998415, 0.41491878, -0.14913702, 0.37816888, 0.083090626
1566316803439, 10.097878, 5.5803957, -8.138277, 2.1435425, 0.39148143, -0.035153728, 0.37710363, 0.099069595
1566316803440, 10.004072, 5.733677, -7.8915896, 2.2201831, 0.40798515, 0.09161274, 0.38242993, 0.10865697
1566316803449, 9.93269, 5.841453, -7.719148, 2.2249732, 0.4279248, 0.2066613, 0.3653857, 0.083090626
1566316803450, 9.659473, 5.870193, -7.417376, 1.9567311, 0.48609337, 0.3174488, 0.36325517, 0.05965481
1566316803458, 9.5570545, 5.949229, -7.316785, 1.5519727, 0.5562608, 0.41971418, 0.36325517, 0.036218993
1566316803459, 9.450479, 5.9085135, -7.2664895, 1.2645704, 0.61829495, 0.50387007, 0.35792887, 0.017044231
1566316803467, 9.329661, 5.958809, -7.1395535, 0.7496411, 0.6652011, 0.572047, 0.3387541, -0.022370555
1566316803468, 9.240755, 5.9372535, -7.070098, 0.39278322, 0.70657474, 0.624245, 0.32597092, -0.05752428
1566316803477, 9.129228, 5.8845634, -6.976692, -0.20118165, 0.73699826, 0.6593987, 0.314253, -0.098004326
1566316803479, 9.241735, 5.997129, -6.991062, -0.7544312, 0.7505051, 0.67005134, 0.314253, -0.12463594
1566316803490, 9.254684, 5.977969, -6.9551373, -1.2406201, 0.753825, 0.6668556, 0.30253512, -0.17896444
1566316803491, 9.38666, 5.9180937, -7.062913, -1.7890797, 0.7377123, 0.63915867, 0.29507825, -0.22050974
1566316803499, 9.652537, 5.982759, -7.2545147, -2.179468, 0.7089109, 0.5954828, 0.29294774, -0.24927188
1566316803501, 9.861371, 5.9037232, -7.472461, -2.560276, 0.6894319, 0.54648066, 0.29507825, -0.29933932
1566316803510, 10.206684, 5.951624, -7.7071733, -3.05844, 0.644514, 0.47297743, 0.28868666, -0.3291667
1566316803512, 10.299478, 5.7719975, -7.8748245, -3.278782, 0.5926519, 0.38775626, 0.27803403, -0.35153726
1566316803518, 10.570109, 5.6833816, -8.178992, -3.539839, 0.54417187, 0.29933932, 0.27164245, -0.36432046
1566316803520, 10.780463, 5.52052, -8.464, -3.755391, 0.49339342, 0.20559604, 0.25246766, -0.37071204
1566316803528, 11.031196, 5.455855, -8.770562, -3.8727467, 0.45422506, 0.094808534, 0.23648871, -0.37603834
1566316803530, 11.276211, 5.3863993, -9.091495, -3.9350173, 0.42907023, 0.008522116, 0.2247708, -0.3653857
1566316803537, 11.28445, 5.249883, -9.242381, -3.788921, 0.42236495, -0.08628642, 0.20133498, -0.36112466
1566316803539, 11.337579, 5.2187476, -9.414823, -3.558999, 0.428893, -0.17896444, 0.18109496, -0.34514567
1566316803547, 11.337836, 5.1157618, -9.503438, -3.4727786, 0.44637758, -0.2695119, 0.17470337, -0.30999196
1566316803549, 11.322895, 5.130132, -9.608819, -3.0919704, 0.45800176, -0.32277513, 0.14913702, -0.28868666
1566316803557, 11.25432, 5.0918117, -9.673484, -2.675237, 0.4740463, -0.36432046, 0.15978967, -0.257794
1566316803559, 11.152014, 5.029541, -9.644744, -2.459685, 0.4948976, -0.406931, 0.16831179, -0.22583607
1566316803568, 11.090449, 5.0439115, -9.630374, -2.193838, 0.5040457, -0.4314321, 0.18322548, -0.18535602
1566316803570, 10.957642, 5.0510964, -9.572893, -1.707649, 0.51906806, -0.44421527, 0.21092236, -0.16618125
1566316803578, 10.835181, 5.101392, -9.455538, -1.4034815, 0.5208806, -0.4463458, 0.23435818, -0.13102753
1566316803581, 10.766274, 5.0654664, -9.436378, -1.099314, 0.52820146, -0.44315, 0.26738137, -0.10546118
1566316803588, 10.497586, 5.0343313, -9.1849, -0.70174074, 0.5260746, -0.43036684, 0.29294774, -0.07563378
1566316803589, 10.246966, 4.9433208, -8.964559, -0.44786867, 0.51922435, -0.3920173, 0.3387541, -0.034088463
1566316803599, 10.109602, 4.854705, -8.866363, -0.15328126, 0.5027608, -0.34301516, 0.36751625, 0.0063915867
1566316803600, 9.870934, 4.7804594, -8.634046, 0.18920656, 0.5017984, -0.2876214, 0.4079963, 0.051132694
1566316803608, 9.548505, 4.634363, -8.337064, 0.43589357, 0.4976393, -0.22690132, 0.4314321, 0.10013486
1566316803609, 9.448102, 4.629573, -8.210127, 0.65384036, 0.50819814, -0.16405073, 0.4612595, 0.13635385
1566316803618, 9.359146, 4.7253737, -8.047266, 0.7113208, 0.52125514, -0.07669904, 0.48469532, 0.17576863
1566316803619, 9.24507, 4.761299, -7.8891945, 0.7496411, 0.5379438, -0.00958738, 0.49960902, 0.19920446
1566316803628, 9.256476, 4.8523097, -7.846084, 0.7592212, 0.5557547, 0.07669904, 0.50387007, 0.221575
1566316803630, 9.228735, 4.9552956, -7.7502837, 0.74006104, 0.5691952, 0.15765914, 0.4910869, 0.24074976
1566316803640, 9.265797, 5.046306, -7.7574687, 0.45984375, 0.5884253, 0.24074976, 0.47830373, 0.24394555
1566316803643, 9.208692, 5.137317, -7.6377177, 0.2706372, 0.5933265, 0.29614353, 0.44421527, 0.25885928
1566316803650, 9.190221, 5.254673, -7.5395217, 0.06466553, 0.59897995, 0.36112466, 0.40373522, 0.25566345
1566316803652, 9.223085, 5.2666483, -7.565867, -0.2921924, 0.58497375, 0.40053943, 0.35473305, 0.23648871
1566316803659, 9.2686, 5.336104, -7.537127, -0.79035646, 0.5853616, 0.4314321, 0.3089267, 0.24714136
1566316803661, 9.30802, 5.3313136, -7.544312, -1.1400293, 0.57239705, 0.44421527, 0.26312032, 0.24714136
1566316803672, 9.543663, 5.4199295, -7.699988, -1.5543678, 0.5465295, 0.44741106, 0.20879184, 0.23435818
1566316803673, 9.649948, 5.4606447, -7.7239385, -1.9088306, 0.5197759, 0.43782368, 0.15978967, 0.23009712
1566316803679, 9.729271, 5.5229154, -7.7359133, -2.076482, 0.4907691, 0.4250405, 0.10972224, 0.21944448
1566316803680, 9.726696, 5.3552637, -7.8197393, -2.186653, 0.46632552, 0.4079963, 0.05752428, 0.21837921
1566316803690, 9.79743, 5.3049684, -7.8700347, -2.430945, 0.44197693, 0.37923414, -0.0063915867, 0.22690132
1566316803692, 9.687908, 5.110972, -7.8341093, -2.5219557, 0.42173848, 0.3536678, -0.060720075, 0.221575
1566316803701, 9.753027, 5.127737, -7.8676395, -2.6321266, 0.41003826, 0.3121225, -0.112918034, 0.24074976
1566316803702, 9.742824, 5.1660576, -7.776629, -2.7854078, 0.3925698, 0.2609898, -0.15446335, 0.24927188
1566316803713, 9.868189, 5.1876125, -7.8652444, -2.9338992, 0.3702633, 0.1949434, -0.18216023, 0.25672874
1566316803715, 10.001695, 5.1971927, -7.9802055, -3.056045, 0.35849592, 0.13848437, -0.18855181, 0.27164245
1566316803721, 10.104481, 5.326524, -7.999366, -3.1207106, 0.33139825, 0.06178534, -0.18109496, 0.27057716
1566316803722, 10.154078, 5.4342995, -8.068821, -2.9099488, 0.31715733, 0.0010652645, -0.16192019, 0.2727077
