TimeStamp(epoch),mAccelerometerMagnitude(m/s^2),mAccelerometerX(m/s^2),mAccelerometerY(m/s^2),mAccelerometerZ(m/s^2),mGyroscopeMagnitude(rad/s),mGyroscopeX(rad/s),mGyroscopeY(rad/s),mGyroscopeZ(rad/s) 
1566315785826, 9.804601, -0.34009278, 3.1997461, 9.261541, 0.36863077, 0.33662358, -0.046871636, 0.14274544
1566315785833, 9.77727, -0.35685793, 3.1973512, 9.2328005, 0.39178857, 0.36645097, -0.018109497, 0.13741912
1566315785834, 9.0511465, -0.33769777, 3.032095, 8.52148, 0.41412076, 0.3898868, -0.0031957934, 0.13954964
1566315785845, 9.93135, -0.30895755, 3.051255, 9.445957, 0.43337676, 0.4101268, 0.011717909, 0.13954964
1566315785846, 9.237208, -0.31135255, 2.9961696, 8.732242, 0.43161225, 0.4048005, 0.022370555, 0.14807177
1566315785853, 9.021158, -0.25147706, 3.05844, 8.48316, 0.44635853, 0.41438788, 0.03089267, 0.16298546
1566315785854, 9.111142, -0.21555176, 3.0201197, 8.59333, 0.40984312, 0.3749731, 0.02130529, 0.16405073
1566315785866, 8.074038, -0.06945557, 3.06323, 7.470066, 0.37458855, 0.3334278, -0.00958738, 0.17044231
1566315785866, 8.986763, 0.14370118, 3.1925611, 8.399334, 0.3463158, 0.30466563, -0.023435818, 0.16298546
1566315785876, 7.764407, 0.17723145, 3.0799952, 7.1251836, 0.30324507, 0.25033715, -0.082025364, 0.15020229
1566315785876, 8.759838, 0.5292993, 3.1973512, 8.138277, 0.27884912, 0.22370553, -0.11717909, 0.11824436
1566315785886, 7.854515, 0.59156984, 3.2308815, 7.1347637, 0.25853467, 0.17150758, -0.17470337, 0.083090626
1566315785886, 8.290471, 0.7113208, 3.1566358, 7.6329274, 0.27070504, 0.14061491, -0.22583607, 0.05006743
1566315785894, 8.472511, 0.66342044, 3.2452517, 7.798184, 0.29508018, 0.111852765, -0.2727077, 0.013848438
1566315785894, 7.828672, 0.74724615, 3.1015503, 7.1491337, 0.33314174, 0.08948222, -0.3206446, -0.0127831735
1566315785902, 8.818913, 0.72569096, 3.1494508, 8.205338, 0.35037163, 0.0777643, -0.33981937, -0.035153728
1566315785903, 7.5446973, 0.59156984, 2.9770093, 6.9072366, 0.37286842, 0.053263225, -0.36645097, -0.043675844
1566315785915, 8.808347, 0.6394702, 3.0752053, 8.229287, 0.35730055, 0.051132694, -0.35153726, -0.03834952
1566315785915, 7.635622, 0.4981641, 2.8285182, 7.074888, 0.48015547, 0.09054748, -0.4708469, -0.025566347
1566315785924, 9.333842, 0.91250247, 3.0943654, 8.758587, 0.5125184, 0.12676647, -0.49534798, -0.035153728
1566315785924, 8.456354, 0.76161623, 2.6776319, 7.9849954, 0.5560946, 0.10759171, -0.5432849, -0.05006743
1566315785933, 7.9250374, 0.859812, 2.5243506, 7.462881, 0.60319465, 0.09267801, -0.5933523, -0.056459017
1566315785933, 8.398751, 0.7711963, 2.5698562, 7.95865, 0.74913466, 0.11930962, -0.737163, -0.05965481
1566315785943, 9.518285, 1.1831397, 2.7303224, 9.041199, 0.97042024, 0.17044231, -0.95447695, -0.040480047
1566315785944, 9.877768, 1.3052857, 2.680027, 9.417217, 1.214914, 0.2695119, -1.1845741, 0.0127831735
1566315785953, 10.072778, 1.7148341, 2.335144, 9.64714, 1.4652792, 0.4111921, -1.406149, 0.026631612
1566315785954, 10.03385, 1.8824854, 2.1171973, 9.625584, 1.7007847, 0.5699165, -1.6021577, 0.03089267
1566315785963, 9.665845, 1.9351759, 1.8729054, 9.283096, 1.9371222, 0.73290193, -1.7928401, 0.03195793
1566315785963, 9.001772, 1.9016455, 1.7771046, 8.617281, 2.1760464, 0.86499476, -1.9963056, 0.041545313
1566315785973, 8.1161175, 1.6597486, 1.7986598, 7.7383084, 2.4665062, 0.9438243, -2.2786007, 0.02876214
1566315785974, 7.122767, 1.7387843, 1.7028589, 6.69408, 2.7699282, 0.9651296, -2.5960495, 0.039414786
1566315785984, 6.361221, 1.8824854, 1.6813037, 5.839058, 3.0740132, 0.95447695, -2.9220204, 0.018109497
1566315785984, 5.483688, 2.3255641, 1.6884888, 4.670288, 3.3457978, 0.90014845, -3.222425, -0.008522116
1566315785994, 4.6086764, 2.4692652, 1.7651294, 3.4679885, 3.4933972, 0.80533993, -3.3992589, -0.017044231
1566315785994, 3.7313192, 2.3135889, 2.0142114, 2.1243825, 3.500928, 0.65726817, -3.4386737, -0.004261058
1566315786004, 3.344269, 2.3303542, 2.2465284, 0.84065187, 3.4633582, 0.45486793, -3.4333472, 0.008522116
1566315786004, 3.5145352, 2.6225464, 2.3375392, -0.100590825, 3.9392488, 0.19068234, -3.9340217, -0.06924219
1566315786014, 5.5034404, 4.5792775, 2.9458742, -0.79993653, 3.981955, -0.041545313, -3.9808934, -0.082025364
1566315786016, 4.0668397, 2.6321266, 2.8452833, -1.2310401, 3.5655367, -0.257794, -3.5558527, -0.05006743
1566315786024, 3.179703, 1.6334034, 2.4333398, -1.2334352, 3.2102535, -0.5305017, -3.165966, -0.03089267
1566315786025, 2.6127129, 1.4585669, 2.1243825, -0.43110353, 3.0854664, -0.8202536, -2.9742184, 0.036218993
1566315786035, 2.3353949, 0.31135255, 2.2872438, 0.3544629, 2.84598, -1.0439591, -2.63866, 0.21731395
1566315786035, 2.4002483, -0.4239185, 2.2968237, -0.55324954, 2.6273322, -1.1930962, -2.299906, 0.43569317
1566315786045, 3.1347148, 0.1341211, 2.2537134, 2.1746778, 2.5200295, -1.2804478, -2.0762005, 0.6327671
1566315786045, 2.993038, 0.91729254, 1.583108, 2.3686745, 2.584305, -1.3219932, -2.0698087, 0.8042747
1566315786055, 6.076551, 2.1195924, 0.88376224, 5.625901, 2.677366, -1.2612731, -2.1699438, 0.9321064
1566315786055, 6.5154133, 3.06802, 0.22992188, 5.743257, 2.784004, -1.1664646, -2.3265376, 0.98856544
1566315786065, 7.733452, 4.045188, -0.014370117, 6.591094, 2.881001, -1.0460896, -2.49698, 0.9853696
1566315786065, 8.651174, 5.2858086, -0.55803955, 6.825806, 2.9510212, -0.9406285, -2.6375947, 0.9310411
1566315786075, 7.9984436, 5.6282964, -0.364043, 5.6714063, 3.0016022, -0.8490158, -2.7409256, 0.8809737
1566315786075, 8.145476, 5.362449, 0.026345216, 6.1312504, 2.9505982, -0.7946873, -2.711098, 0.8511463
1566315786085, 6.506211, 5.242698, 0.11496094, 3.8511915, 2.9641993, -0.8085357, -2.722816, 0.8479505
1566315786086, 7.223749, 5.5803957, 0.2682422, 4.5792775, 2.9942544, -0.83942837, -2.7462518, 0.8479505
1566315786096, 6.750195, 5.9180937, 0.098195806, 3.2452517, 3.067629, -0.89162636, -2.8048413, 0.86499476
1566315786096, 7.727283, 6.473738, 0.11496094, 4.2176294, 3.1042087, -0.8841695, -2.847452, 0.86392945
1566315786105, 7.7904887, 6.4905033, -0.026345216, 4.3086405, 3.137226, -0.8809737, -2.8900626, 0.8447547
1566315786106, 7.55295, 6.5719337, -0.06706055, 3.7218604, 3.175587, -0.84155893, -2.948652, 0.82557994
1566315786116, 8.38771, 6.70845, -0.07664063, 5.0343313, 3.196579, -0.8085357, -2.9859362, 0.80533993
1566315786116, 7.9572144, 6.8593364, -0.34009278, 4.018843, 3.323955, -0.773382, -3.141465, 0.76272935
1566315786126, 9.095912, 7.209009, -0.42870852, 5.5301003, 3.4369178, -0.71479243, -3.2799492, 0.737163
1566315786126, 8.559112, 7.436536, -0.7807764, 4.164939, 3.6199563, -0.6860303, -3.4898064, 0.6743124
1566315786136, 9.604258, 8.188572, -1.1376343, 4.888235, 3.7994776, -0.6498113, -3.697533, 0.58483016
1566315786140, 9.778339, 8.48316, -1.4441968, 4.643943, 4.035242, -0.61572284, -3.959588, 0.47510794
1566315786146, 9.575316, 8.255632, -1.456172, 4.6271777, 4.2566743, -0.5773733, -4.196077, 0.42290998
1566315786146, 8.961638, 7.5946074, -1.3148658, 4.5720925, 4.4640794, -0.53795856, -4.414456, 0.3888215
1566315786156, 8.132375, 6.7874856, -1.1376343, 4.3325906, 4.6666255, -0.52624065, -4.6179214, 0.41864893
1566315786159, 7.330808, 6.0617948, -0.92926764, 4.016448, 4.8576202, -0.5336975, -4.805408, 0.46871635
1566315786166, 6.70094, 5.724097, -0.79754156, 3.391348, 5.0203094, -0.5550028, -4.9598713, 0.5432849
1566315786167, 6.500257, 5.7815776, -0.855022, 2.8452833, 5.170545, -0.6402239, -5.0930295, 0.62104917
1566315786177, 6.4033394, 5.8917484, -1.2861255, 2.1531227, 5.2682314, -0.7520767, -5.168663, 0.68816084
1566315786177, 6.493352, 6.0354495, -1.6573536, 1.7292042, 5.3111854, -0.85753787, -5.1857076, 0.76272935
1566315786187, 6.7421885, 6.248606, -1.9040406, 1.6693287, 5.341727, -0.9864349, -5.181446, 0.8447547
1566315786187, 7.0370703, 6.5192432, -1.9758912, 1.7651294, 5.3149586, -1.0961571, -5.1143346, 0.9438243
1566315786197, 7.230355, 6.593489, -2.1124072, 2.083667, 5.266973, -1.1867046, -5.023787, 1.0460896
1566315786197, 7.6389956, 6.8880763, -2.047742, 2.5914114, 5.203605, -1.2655342, -4.9129996, 1.1568772
1566315786207, 8.083634, 7.1778736, -2.0860622, 3.0776002, 5.122793, -1.3145363, -4.7862334, 1.2676647
1566315786207, 8.704784, 7.680828, -2.1411476, 3.4919386, 5.048815, -1.3379722, -4.6743803, 1.3603427
1566315786217, 9.49541, 8.3179035, -2.2608986, 3.9829175, 4.9777493, -1.3219932, -4.577441, 1.4413028
1566315786218, 10.314587, 8.950189, -2.4692652, 4.493057, 4.913017, -1.2921658, -4.495416, 1.5030881
1566315786228, 10.943415, 9.441168, -2.5938063, 4.888235, 4.870198, -1.2644689, -4.438957, 1.5542208
1566315786228, 11.282341, 9.77647, -2.675237, 4.9552956, 4.8012257, -1.2186625, -4.3697147, 1.5723304
1566315786237, 11.410679, 10.056687, -2.6345215, 4.703819, 4.7224116, -1.1973573, -4.286624, 1.5787219
1566315786238, 11.549885, 10.30098, -2.5051906, 4.5840673, 4.6649733, -1.1664646, -4.225904, 1.5947009
1566315786247, 11.529274, 10.035132, -2.4141798, 5.137317, 4.5803657, -1.1749867, -4.111921, 1.6405072
1566315786248, 10.68482, 9.877061, -2.4620802, 3.2476466, 4.5295706, -1.2026836, -4.0224385, 1.700162
1566315786257, 11.068995, 9.750125, -2.3902297, 4.663103, 4.4224005, -1.2442288, -3.862649, 1.7576864
1566315786258, 10.358884, 9.7812605, -2.411785, 2.411785, 4.3404922, -1.3187973, -3.713512, 1.8194717
1566315786268, 10.834952, 9.972861, -2.43813, 3.4631984, 4.2288737, -1.3944311, -3.512177, 1.8983012
1566315786268, 10.301907, 9.850716, -2.4836354, 1.710044, 4.149079, -1.5446335, -3.3140378, 1.9611518
1566315786278, 10.406767, 9.958491, -2.6273365, 1.4920973, 4.07015, -1.6895094, -3.0903323, 2.0399814
1566315786278, 10.548012, 10.087823, -2.7446926, 1.4010864, 3.9969676, -1.8588865, -2.8378644, 2.1134846
1566315786288, 10.651325, 10.243499, -2.914739, 0.16046631, 3.9554958, -2.014415, -2.6237464, 2.1688783
1566315786288, 10.949836, 10.37762, -2.9458742, 1.8776954, 3.9078393, -2.1582258, -2.3872576, 2.2168152
1566315786298, 10.886848, 10.394385, -3.168611, 0.66342044, 3.8983507, -2.2807312, -2.2146847, 2.25623
1566315786301, 11.404761, 10.499766, -3.163821, 3.1326857, 3.8506227, -2.3425164, -2.0282636, 2.2860575
1566315786307, 11.307704, 10.473421, -3.4679885, 2.4788454, 3.8193035, -2.3915186, -1.9057581, 2.288188
1566315786308, 11.955794, 10.653048, -3.4823585, 4.1625443, 3.7637608, -2.3499734, -1.8152106, 2.312689
1566315786318, 12.112464, 10.578802, -3.5853443, 4.6846585, 3.7301476, -2.3020365, -1.7470337, 2.3584955
1566315786319, 12.24901, 10.624307, -3.8128712, 4.756509, 3.6677516, -2.2210765, -1.7267936, 2.3531692
1566315786328, 12.77603, 10.547667, -3.8799317, 6.0761647, 3.5892706, -2.1273332, -1.659682, 2.3670175
1566315786329, 12.398499, 10.686578, -4.1242237, 4.744534, 3.532363, -2.0197413, -1.6628778, 2.3734093
1566315786338, 12.804924, 10.717712, -4.1864944, 5.6187162, 3.4784522, -1.9025623, -1.6660736, 2.3883228
1566315786339, 12.881551, 10.756033, -4.3086405, 5.6282964, 3.4632297, -1.8024274, -1.6916399, 2.4256072
1566315786348, 12.881731, 10.784774, -4.5601172, 5.369634, 3.4659033, -1.7086842, -1.7246631, 2.4735441
1566315786349, 12.959648, 10.866204, -4.7133985, 5.2594633, 3.4700139, -1.6181368, -1.7598169, 2.5150893
1566315786359, 13.056418, 11.02188, -4.761299, 5.130132, 3.4713871, -1.5243934, -1.816276, 2.5353293
1566315786359, 13.36468, 11.314073, -4.790039, 5.2594633, 3.4748259, -1.4253238, -1.881257, 2.5502431
1566315786369, 13.483233, 11.488909, -4.7133985, 5.252278, 3.4914496, -1.3411679, -1.953695, 2.5640914
1566315786370, 13.528719, 11.558365, -4.7636943, 5.1708474, 3.5140145, -1.2580773, -2.0229373, 2.5832663
1566315786379, 13.625759, 11.754756, -4.84752, 4.897815, 3.5421383, -1.1856394, -2.0900488, 2.602441
1566315786380, 13.62037, 11.7930765, -4.9624805, 4.670288, 3.5515265, -1.1121361, -2.1326594, 2.6130936
1566315786389, 13.591017, 11.829002, -4.9361353, 4.519402, 3.55217, -1.0460896, -2.1539648, 2.6237464
1566315786390, 13.669795, 11.934382, -5.0678616, 4.3301954, 3.5579998, -0.9821738, -2.1688783, 2.6439865
1566315786400, 13.595569, 11.886482, -5.1804276, 4.0882983, 3.568735, -0.9331717, -2.1742048, 2.6716833
1566315786400, 13.464577, 11.773916, -5.213958, 3.9350173, 3.5839984, -0.8788432, -2.1784658, 2.706837
1566315786409, 13.620513, 11.953543, -5.2882032, 3.8296363, 3.591473, -0.8266452, -2.15503, 2.751578
1566315786410, 13.440066, 11.797867, -5.400769, 3.5039136, 3.5929074, -0.7957525, -2.1124194, 2.795254
1566315786420, 13.399959, 11.809842, -5.48699, 3.159031, 3.5573492, -0.7669904, -2.0197413, 2.8261466
1566315786420, 13.428041, 11.826607, -5.623506, 2.9698243, 3.5498562, -0.76059884, -1.9238676, 2.884736
1566315786430, 13.442855, 11.886482, -5.702542, 2.6273365, 3.5260246, -0.7499462, -1.8237327, 2.9230857
1566315786431, 13.620538, 11.987073, -5.702542, 3.051255, 3.502131, -0.7318367, -1.7054884, 2.9699574
1566315786440, 13.491897, 12.008629, -5.9252787, 1.6477735, 3.494714, -0.7190535, -1.6128104, 3.0157638
1566315786441, 14.0363455, 12.319981, -5.949229, 3.1374757, 3.4766986, -0.6892261, -1.5201324, 3.0498521
1566315786450, 13.949699, 12.339141, -6.06419, 2.3590944, 3.4804635, -0.6625945, -1.4530207, 3.0924628
1566315786451, 14.291942, 12.657679, -6.1599903, 2.4692652, 3.4690974, -0.61678815, -1.401888, 3.1127028
1566315786460, 14.507161, 12.710369, -6.2653713, 3.1063404, 3.4806094, -0.60080916, -1.3507553, 3.1510522
1566315786461, 14.336038, 12.743899, -6.339617, 1.710044, 3.4975643, -0.5795039, -1.3688648, 3.165966
1566315786473, 14.642661, 12.87802, -6.2031007, 3.175796, 3.4971576, -0.5432849, -1.3454291, 3.1819448
1566315786473, 14.288377, 12.743899, -6.3012967, 1.4298267, 3.527523, -0.52411014, -1.3763217, 3.2053807
1566315786480, 14.669678, 12.940291, -6.2438164, 2.9602442, 3.545815, -0.46871635, -1.4274544, 3.2117724
1566315786481, 14.454326, 12.921131, -6.212681, 1.8369801, 3.5772505, -0.4293016, -1.4881744, 3.2245555
1566315786491, 14.831506, 13.277988, -6.1552005, 2.4045997, 3.586339, -0.38029942, -1.5297197, 3.2213597
1566315786491, 15.1266775, 13.558207, -6.128855, 2.7255323, 3.5628562, -0.3174488, -1.5361114, 3.1989892
1566315786501, 15.51555, 14.123431, -6.109695, 1.9830762, 3.537591, -0.25033715, -1.567004, 3.161705
1566315786501, 15.975677, 14.427598, -5.973179, 3.3745828, 3.4678187, -0.18109496, -1.5755261, 3.0839405
1566315786509, 16.008852, 14.741345, -5.9540186, 1.8776954, 3.3923824, -0.112918034, -1.5861788, 2.996589
1566315786510, 16.317478, 14.865887, -5.7696023, 3.4608033, 3.319555, -0.017044231, -1.582983, 2.9177594
1566315786520, 16.053953, 14.8179865, -5.745652, 2.2680836, 3.260424, 0.05965481, -1.5947009, 2.843191
1566315786520, 16.100708, 14.762901, -5.6498513, 3.0608351, 3.2379262, 0.1555286, -1.6682042, 2.770753
1566315786530, 15.549028, 13.99889, -5.7959476, 3.4943337, 3.248348, 0.24181503, -1.7598169, 2.7196202
1566315786530, 15.496129, 14.247972, -5.5660257, 2.4788454, 3.1946368, 0.29933932, -1.7789917, 2.6365294
1566315786540, 15.353817, 14.322217, -5.2283278, 1.8106349, 3.0917919, 0.3153183, -1.7427727, 2.534264
1566315786541, 14.870303, 14.001285, -4.7948294, 1.4489869, 2.9925182, 0.32384038, -1.663943, 2.466087
1566315786550, 14.655705, 13.824054, -4.6607084, 1.4010864, 2.9179378, 0.33449304, -1.5968314, 2.4192157
1566315786551, 14.384813, 13.510305, -4.7014236, 1.5136524, 2.8217611, 0.3472762, -1.5180018, 2.3531692
1566315786561, 14.324876, 13.316309, -5.0271463, 1.6142433, 2.7461045, 0.3568636, -1.454086, 2.3020365
1566315786561, 14.338876, 13.227694, -5.295388, 1.6094532, 2.664562, 0.37923414, -1.3901701, 2.2413163
1566315786571, 14.292981, 13.160633, -5.360054, 1.5352076, 2.5989625, 0.40053943, -1.3475596, 2.1859226
1566315786571, 14.217669, 13.069622, -5.319339, 1.7411792, 2.5192628, 0.42397526, -1.3038837, 2.1134846
1566315786582, 14.116979, 13.019327, -5.1852174, 1.7028589, 2.4572952, 0.44741106, -1.2761868, 2.0516994
1566315786583, 13.995063, 12.901971, -5.127737, 1.7627344, 2.3948557, 0.49002165, -1.2357068, 1.9920446
1566315786591, 13.912089, 12.78222, -5.1947975, 1.7818946, 2.3073435, 0.52411014, -1.1749867, 1.9153455
1566315786591, 13.840635, 12.674444, -5.2858086, 1.7268091, 2.2097416, 0.5475459, -1.1142666, 1.8279938
1566315786601, 13.81745, 12.600199, -5.4127445, 1.6908839, 2.1133778, 0.5699165, -1.031176, 1.7544906
1566315786601, 13.78126, 12.540323, -5.484595, 1.6070582, 2.0115993, 0.5933523, -0.9491506, 1.6714
1566315786611, 13.793173, 12.463682, -5.6354814, 1.7747096, 1.8859171, 0.6221144, -0.8490158, 1.5648735
1566315786612, 13.761544, 12.437337, -5.6282964, 1.7363893, 1.7927338, 0.6689861, -0.7616641, 1.478587
1566315786621, 13.716589, 12.303216, -5.7480474, 1.9327809, 1.6957327, 0.7073356, -0.69348717, 1.3763217
1566315786622, 13.6688385, 12.18107, -5.8965383, 1.9208057, 1.6050863, 0.76059884, -0.60080916, 1.2793826
1566315786631, 13.621653, 12.085269, -5.989944, 1.9016455, 1.5173057, 0.8042747, -0.51452273, 1.1792477
1566315786633, 13.634443, 11.996654, -6.1959157, 1.8944606, 1.4559847, 0.86606, -0.41864893, 1.0929613
1566315786641, 13.609753, 11.876903, -6.353987, 1.947151, 1.3932836, 0.9257148, -0.3206446, 0.99069595
1566315786642, 13.284705, 11.441009, -6.502478, 1.81782, 1.3775423, 1.0013486, -0.21411815, 0.9214538
1566315786651, 13.231105, 11.309282, -6.6342044, 1.7747096, 1.3695912, 1.0705907, -0.09374327, 0.8490158
1566315786653, 12.911519, 10.873389, -6.744375, 1.7292042, 1.3817002, 1.1377025, 0.004261058, 0.7840346
1566315786661, 12.632143, 10.5764065, -6.6773148, 1.7675245, 1.4131166, 1.2154667, 0.07456851, 0.716923
1566315786662, 12.267667, 10.140513, -6.71324, 1.6118482, 1.4477623, 1.2761868, 0.12463594, 0.67218184
1566315786671, 11.823095, 9.690249, -6.622229, 1.4250367, 1.4790852, 1.3337111, 0.15233281, 0.62104917
1566315786672, 11.506293, 9.362132, -6.576724, 1.22146, 1.4835597, 1.3592775, 0.15765914, 0.57311225
1566315786682, 11.193773, 9.019644, -6.5479836, 1.0346485, 1.512952, 1.4008228, 0.16405073, 0.5475459
1566315786682, 10.90606, 8.6627865, -6.564749, 0.89573735, 1.5293689, 1.4370418, 0.15233281, 0.5006743
1566315786692, 10.744826, 8.600515, -6.3899126, 0.80712163, 1.5333024, 1.4604776, 0.12996227, 0.44847634
1566315786692, 10.49476, 8.243657, -6.464158, 0.62989014, 1.554503, 1.4935007, 0.084155895, 0.42290998
1566315786702, 10.133674, 7.8891945, -6.351592, 0.3305127, 1.5661992, 1.5116103, 0.039414786, 0.4079963
1566315786702, 9.806938, 7.5395217, -6.2701616, 0.12933107, 1.5625259, 1.5116103, -0.018109497, 0.39521313
1566315786712, 9.262405, 6.864126, -6.212681, -0.2802173, 1.5485402, 1.4945661, -0.06178534, 0.40053943
1566315786713, 8.932805, 6.5072684, -6.0833497, -0.6658155, 1.5195473, 1.4562165, -0.098004326, 0.42290998
1566315786722, 8.62446, 6.210286, -5.8821683, -1.101709, 1.485458, 1.4136059, -0.128897, 0.43782368
1566315786723, 8.493879, 6.0402393, -5.8175025, -1.3483961, 1.4498508, 1.3646038, -0.1587244, 0.46339005
1566315786732, 8.438959, 5.944439, -5.7911572, -1.5304176, 1.409842, 1.3102753, -0.18109496, 0.4878911
1566315786733, 8.354449, 5.9156985, -5.704937, -1.5016773, 1.3716093, 1.2580773, -0.20879184, 0.5049353
1566315786743, 8.3344145, 5.8989334, -5.6833816, -1.5376027, 1.3238496, 1.200553, -0.22796659, 0.5091964
1566315786743, 8.383221, 6.0354495, -5.654641, -1.3699512, 1.2896732, 1.1622036, -0.23542345, 0.5070659
1566315786753, 8.45012, 6.167176, -5.6522465, -1.1927198, 1.2427455, 1.1121361, -0.24074976, 0.49960902
1566315786753, 8.565306, 6.2725563, -5.7312818, -1.0825489, 1.2123599, 1.0855045, -0.25246766, 0.47723848
1566315786763, 8.849934, 6.6102543, -5.7935524, -1.0298585, 1.1592021, 1.0460896, -0.26738137, 0.42184472
1566315786763, 9.105209, 6.832991, -5.9468336, -0.92208254, 1.0987799, 0.9981528, -0.2727077, 0.36964676
1566315786773, 9.4152775, 7.079678, -6.1216702, -1.0250684, 1.055662, 0.97045594, -0.27057716, 0.3153183
1566315786773, 9.551234, 7.1611085, -6.248606, -0.9484278, 1.0149662, 0.95447695, -0.23648871, 0.2514024
1566315786783, 9.63377, 7.094048, -6.464158, -0.83586186, 0.98745877, 0.94488955, -0.21518342, 0.18961707
1566315786783, 9.655919, 6.9048414, -6.70366, -0.7879615, 0.97435015, 0.94275904, -0.1949434, 0.15020229
1566315786793, 9.5284, 6.631809, -6.806646, -0.69216067, 0.9574102, 0.9310411, -0.18216023, 0.128897
1566315786793, 9.328348, 6.2965064, -6.8497562, -0.6730005, 0.9475915, 0.9235843, -0.18002969, 0.111852765
1566315786803, 9.222337, 5.9947343, -6.969507, -0.73527104, 0.95789665, 0.92997587, -0.19281286, 0.12463594
1566315786805, 8.960079, 5.6785917, -6.8761015, -0.86939216, 0.96211135, 0.92784536, -0.20772657, 0.1470065
1566315786813, 8.818437, 5.49178, -6.847361, -0.847837, 0.96347797, 0.9267801, -0.20772657, 0.16192019
1566315786814, 9.001531, 5.4247193, -7.1132083, -1.0011182, 0.9684308, 0.92038846, -0.22690132, 0.19813919
1566315786823, 9.083897, 5.4750147, -7.158714, -1.1376343, 0.9678213, 0.91825795, -0.23009712, 0.20133498
1566315786824, 9.193204, 5.5732107, -7.182664, -1.3651612, 0.9519489, 0.9012137, -0.23755397, 0.19387813
1566315786834, 9.406474, 5.743257, -7.28565, -1.5543678, 0.9334738, 0.87777793, -0.26525086, 0.17470337
1566315786835, 9.498166, 5.8677983, -7.2760696, -1.6860938, 0.91112304, 0.84581995, -0.30360037, 0.15020229
1566315786845, 9.528925, 5.9228835, -7.2760696, -1.6669337, 0.88231486, 0.80107886, -0.34621096, 0.12996227
1566315786846, 9.71799, 6.016289, -7.391031, -1.9016455, 0.85270137, 0.7584683, -0.37923414, 0.08948222
1566315786854, 9.833845, 6.095325, -7.4844365, -1.8800904, 0.83258784, 0.71798825, -0.41545314, 0.07137272
1566315786854, 10.014448, 6.1575956, -7.654483, -1.9447559, 0.82412714, 0.69029135, -0.44741106, 0.05006743
1566315786864, 10.324235, 6.4258375, -7.8652444, -1.8537452, 0.8229476, 0.664725, -0.48469532, 0.02130529
1566315786864, 10.565045, 6.5407987, -8.109536, -1.7531544, 0.82318753, 0.64341974, -0.5134575, 0.0031957934
1566315786874, 10.877733, 6.782696, -8.3179035, -1.7699195, 0.821388, 0.624245, -0.5336975, -0.0127831735
1566315786874, 11.288279, 7.048543, -8.6627865, -1.6429834, 0.8244417, 0.59761333, -0.56672066, -0.037284255
1566315786884, 11.688403, 7.34313, -8.940608, -1.6621436, 0.83400005, 0.5933523, -0.58269966, -0.0628506
1566315786885, 12.031818, 7.5467067, -9.2328005, -1.6022681, 0.8399838, 0.56885123, -0.6103965, -0.096939065
1566315786894, 12.608236, 7.965835, -9.608819, -1.7842896, 0.8351252, 0.531567, -0.6306366, -0.13102753
1566315786895, 13.003245, 8.277188, -9.814791, -2.059717, 0.82353485, 0.48469532, -0.6412892, -0.17896444
1566315786904, 13.275316, 8.53106, -9.929751, -2.203418, 0.78969437, 0.41545314, -0.6317018, -0.22796659
1566315786905, 13.657511, 8.931028, -10.030342, -2.4812403, 0.77151483, 0.3334278, -0.6295713, -0.29614353
1566315786914, 13.886128, 9.108259, -10.135723, -2.6704469, 0.76982737, 0.22903186, -0.6295713, -0.37923414
1566315786915, 14.06551, 9.304651, -10.186019, -2.7399025, 0.781258, 0.12037488, -0.6221144, -0.45699844
1566315786925, 14.301601, 9.582474, -10.200389, -2.943479, 0.817364, -0.0127831735, -0.6018744, -0.55287224
1566315786925, 14.389794, 9.639954, -10.221944, -3.1063404, 0.8582641, -0.1438107, -0.55074173, -0.6423545
1566315786934, 14.369869, 9.685459, -10.164463, -3.0608351, 0.9301766, -0.25672874, -0.49960902, -0.7414241
1566315786935, 14.285453, 9.575289, -10.212363, -2.8452833, 1.0226766, -0.37710363, -0.44208476, -0.84155893
1566315786945, 14.020418, 9.275911, -10.200389, -2.5459058, 1.0923673, -0.479369, -0.3685815, -0.90973586
1566315786946, 13.696305, 8.943004, -10.140513, -2.186653, 1.1827003, -0.572047, -0.30360037, -0.9896307
1566315786955, 13.18932, 8.4376545, -9.951306, -1.9327809, 1.2701468, -0.6593987, -0.24394555, -1.0578076
1566315786955, 12.821469, 8.087981, -9.812395, -1.6405884, 1.3284347, -0.7094661, -0.17789917, -1.1089402
1566315786965, 12.6074705, 7.800579, -9.82437, -1.2573853, 1.3797388, -0.73609775, -0.10546118, -1.1622036
1566315786966, 12.123193, 7.2640944, -9.673484, -0.7927515, 1.4023145, -0.753142, -0.033023197, -1.1824435
1566315786975, 11.796308, 6.856941, -9.589659, -0.4167334, 1.4310182, -0.7435546, 0.04474111, -1.2218584
1566315786976, 11.460458, 6.5168486, -9.426797, -0.09101075, 1.4342381, -0.7126619, 0.094808534, -1.2410331
1566315786986, 11.084233, 6.1073003, -9.249566, 0.081430666, 1.4300103, -0.67324716, 0.16618125, -1.2506205
1566315786986, 10.686926, 5.6187162, -9.072334, 0.57719976, 1.4103767, -0.62531024, 0.22370553, -1.2442288
1566315786995, 10.38044, 5.137317, -9.0004835, 0.5939649, 1.3824232, -0.55074173, 0.27483824, -1.2378373
1566315786996, 10.101587, 4.761299, -8.873548, 0.7951465, 1.3501213, -0.47617322, 0.3291667, -1.2197278
1566315787005, 9.875831, 4.399651, -8.796907, 0.8885523, 1.2990392, -0.39414784, 0.37284255, -1.180313
1566315787006, 9.833665, 4.184099, -8.856783, 0.8669971, 1.2510301, -0.3057309, 0.41225734, -1.1408982
1566315787022, 9.721112, 4.0020776, -8.799302, 1.0274634, 1.1994429, -0.21198763, 0.44101948, -1.0950918
1566315787022, 9.558782, 3.7122805, -8.751402, 1.0011182, 1.1341466, -0.11824436, 0.44741106, -1.0354371
1566315787029, 9.405248, 3.4751735, -8.672366, 1.0825489, 1.062199, -0.010652645, 0.4293016, -0.9715212
1566315787030, 9.188632, 3.2189064, -8.552615, 0.96040285, 0.9658983, 0.09374327, 0.3920173, -0.87777793
1566315787042, 9.129642, 2.9482691, -8.6077, 0.75203615, 0.8598743, 0.17470337, 0.33768883, -0.77125144
1566315787043, 9.05417, 2.7638526, -8.605306, 0.5364844, 0.7657132, 0.2609898, 0.26312032, -0.67005134
1566315787049, 8.9748535, 2.7231374, -8.54064, 0.43589357, 0.6705592, 0.31318775, 0.16724652, -0.56885123
1566315787049, 8.853298, 2.8428884, -8.382568, 0.17723145, 0.6019206, 0.3653857, 0.07137272, -0.47297743
1566315787062, 8.839166, 3.168611, -8.250843, -0.119750984, 0.56531227, 0.39734364, -0.020240024, -0.4016047
1566315787063, 8.884832, 3.4895437, -8.162227, -0.37601808, 0.5486443, 0.42184472, -0.10226539, -0.3355583
1566315787069, 9.033813, 3.8607717, -8.150251, -0.52690434, 0.55958945, 0.44315, -0.16085494, -0.30146983
1566315787069, 9.139203, 4.3182206, -8.028106, -0.65384036, 0.57574856, 0.4463458, -0.22796659, -0.28336033
1566315787083, 9.172453, 4.6032276, -7.8915896, -0.8167017, 0.5988454, 0.45167214, -0.2790993, -0.27696875
1566315787083, 9.20823, 4.854705, -7.7694435, -0.9268726, 0.6086036, 0.43782368, -0.3291667, -0.26525086
1566315787089, 9.333668, 5.127737, -7.7287283, -1.0442286, 0.6127169, 0.41545314, -0.35260254, -0.28016454
1566315787090, 9.48703, 5.4510646, -7.6520877, -1.3172607, 0.59918547, 0.36751625, -0.34408042, -0.32490566
1566315787103, 9.596717, 5.5803957, -7.688013, -1.3603711, 0.602111, 0.3472762, -0.32810146, -0.36645097
1566315787104, 9.638913, 5.592371, -7.7071733, -1.4944923, 0.5980158, 0.30040458, -0.30786142, -0.41545314
1566315787109, 9.679841, 5.611531, -7.726333, -1.585503, 0.58387667, 0.2396845, -0.28016454, -0.4527374
1566315787110, 9.536572, 5.3552637, -7.702383, -1.7148341, 0.56052953, 0.18855181, -0.26418558, -0.45699844
1566315787121, 9.398183, 5.0989966, -7.690408, -1.7842896, 0.5441833, 0.11930962, -0.2514024, -0.4676511
1566315787122, 9.372069, 5.087022, -7.692803, -1.6669337, 0.51537335, 0.05752428, -0.23329292, -0.45593318
1566315787128, 9.179701, 4.761299, -7.664063, -1.6908839, 0.47469816, -0.013848438, -0.2130529, -0.42397526
1566315787129, 9.234227, 4.7397437, -7.7502837, -1.6549586, 0.4607783, -0.07563378, -0.20879184, -0.40373522
1566315787138, 9.038192, 4.5888577, -7.656878, -1.4154567, 0.43344876, -0.14061491, -0.20559604, -0.35473305
1566315787138, 9.052309, 4.5601172, -7.704778, -1.336421, 0.4317752, -0.20559604, -0.2066613, -0.31851408
1566315787150, 9.175677, 4.617598, -7.822134, -1.2981006, 0.42177075, -0.25353295, -0.21198763, -0.26205507
1566315787151, 9.07908, 4.6750784, -7.709568, -1.0657837, 0.42729056, -0.30146983, -0.21411815, -0.21411815
1566315787158, 9.146688, 4.87626, -7.685618, -0.9029224, 0.43103868, -0.3387541, -0.21411815, -0.1587244
1566315787158, 9.32388, 5.087022, -7.783814, -0.6849756, 0.43377197, -0.36645097, -0.20453078, -0.10972224
1566315787171, 9.52972, 5.384004, -7.8484793, -0.47900394, 0.45940077, -0.40373522, -0.20453078, -0.07882957
1566315787172, 9.62176, 5.609136, -7.812554, -0.28261232, 0.4569227, -0.41971418, -0.17257284, -0.053263225
1566315787180, 9.675698, 5.767207, -7.767049, -0.17723145, 0.46861103, -0.44315, -0.15020229, -0.025566347
1566315787182, 9.719762, 5.8749833, -7.7430983, -0.05269043, 0.47206482, -0.45593318, -0.12144015, -0.014913702
1566315787191, 9.772987, 6.07856, -7.647298, 0.28500733, 0.46081153, -0.4495416, -0.101200126, -0.004261058
1566315787192, 9.657797, 6.080955, -7.4820414, 0.5604346, 0.46244013, -0.4527374, -0.09374327, 0.00958738
1566315787201, 9.619484, 6.0498195, -7.4509063, 0.6466553, 0.44269013, -0.43356264, -0.08735169, 0.01917476
1566315787202, 9.53105, 6.1312504, -7.2688847, 0.64186525, 0.4414117, -0.43356264, -0.07882957, 0.025566347
1566315787211, 9.436886, 6.119275, -7.1395535, 0.79754156, 0.4356124, -0.4293016, -0.06498113, 0.035153728
1566315787212, 9.421255, 6.200706, -7.046148, 0.8143067, 0.4258314, -0.41758367, -0.07350325, 0.039414786
1566315787221, 9.441074, 6.239026, -7.0245924, 0.92926764, 0.4105983, -0.4016047, -0.07882957, 0.033023197
1566315787222, 9.43863, 6.3084817, -6.952742, 0.974773, 0.40991926, -0.39947417, -0.082025364, 0.041545313
1566315787230, 9.396804, 6.239026, -6.947952, 1.0490186, 0.39014864, -0.37710363, -0.08948222, 0.04474111
1566315787231, 9.359928, 6.2965064, -6.832991, 1.1280543, 0.378797, -0.36005938, -0.10013486, 0.06178534
1566315787242, 9.223712, 6.1791506, -6.7491655, 1.1591895, 0.35104465, -0.32490566, -0.11824436, 0.060720075
1566315787244, 9.158268, 6.1528053, -6.6174393, 1.4920973, 0.33915251, -0.30360037, -0.13209279, 0.07350325
1566315787250, 9.194495, 6.1599903, -6.6581545, 1.5040723, 0.30259135, -0.25246766, -0.14274544, 0.08628642
1566315787252, 9.158343, 6.248606, -6.5216384, 1.5160475, 0.29281792, -0.21198763, -0.18002969, 0.09161274
1566315787261, 9.292724, 6.3803325, -6.5551686, 1.6357985, 0.28182033, -0.16405073, -0.20453078, 0.10333065
1566315787263, 9.492551, 6.631809, -6.598279, 1.6094532, 0.27321905, -0.11824436, -0.21944448, 0.111852765
1566315787272, 9.520315, 6.7228203, -6.557564, 1.5615528, 0.2750487, -0.06924219, -0.24394555, 0.10652645
1566315787274, 9.5720215, 6.8832865, -6.488108, 1.465752, 0.27997208, -0.02130529, -0.2609898, 0.099069595
1566315787280, 9.5013485, 6.861731, -6.4162574, 1.4226416, 0.290624, 0.010652645, -0.27377295, 0.096939065
1566315787281, 9.404518, 6.7779055, -6.3851223, 1.3172607, 0.31206796, 0.041545313, -0.29507825, 0.09267801
1566315787290, 9.355769, 6.832991, -6.2797413, 1.1855347, 0.31623825, 0.08522116, -0.28975195, 0.09374327
1566315787291, 9.417639, 6.952742, -6.2605815, 1.0753639, 0.34218213, 0.098004326, -0.31318775, 0.096939065
1566315787300, 9.455849, 6.974297, -6.2941117, 1.0753639, 0.35911423, 0.13315806, -0.3174488, 0.10226539
1566315787300, 9.515532, 7.0413575, -6.346802, 0.8262818, 0.35687152, 0.1438107, -0.31318775, 0.09267801
1566315787309, 9.71069, 7.247329, -6.4138627, 0.79754156, 0.3624843, 0.16831179, -0.3089267, 0.08735169
1566315787310, 9.756525, 7.340735, -6.3803325, 0.7711963, 0.36298487, 0.18961707, -0.30040458, 0.07456851
1566315787319, 9.880901, 7.5083866, -6.3803325, 0.74006104, 0.37036595, 0.2034655, -0.30466563, 0.054328486
1566315787320, 9.933932, 7.5155716, -6.4833183, 0.40715334, 0.3502647, 0.19813919, -0.28655612, 0.036218993
1566315787332, 9.908964, 7.510782, -6.461763, 0.1460962, 0.3273674, 0.18109496, -0.27057716, 0.034088463
1566315787335, 9.861035, 7.4652762, -6.4426026, -0.050295413, 0.2820699, 0.14913702, -0.23755397, 0.029827405
1566315787340, 9.978584, 7.5251517, -6.5479836, -0.26105714, 0.2565408, 0.11717909, -0.22796659, 0.010652645
1566315787344, 10.003899, 7.589817, -6.5096636, -0.31135255, 0.2270738, 0.07882957, -0.21198763, 0.020240024
1566315787350, 10.168496, 7.7478886, -6.564749, -0.5221143, 0.19257729, 0.033023197, -0.18961707, 0.0063915867
1566315787351, 10.071602, 7.568262, -6.631809, -0.42152345, 0.17273715, -0.007456851, -0.17257284, -0.0010652645
1566315787360, 10.194111, 7.7167535, -6.6437845, -0.48139894, 0.16427194, -0.06391586, -0.15126756, -0.004261058
1566315787361, 10.366374, 7.8341093, -6.7707205, -0.49576905, 0.17818598, -0.12037488, -0.13102753, -0.00958738
1566315787370, 10.403934, 7.8987746, -6.75156, -0.51732427, 0.19787556, -0.16831179, -0.10226539, -0.01917476
1566315787370, 10.55256, 8.020921, -6.8425713, -0.44786867, 0.23363318, -0.22264028, -0.066046394, -0.025566347
1566315787380, 10.566367, 8.023315, -6.8689165, -0.30416748, 0.26651844, -0.26312032, -0.020240024, -0.037284255
1566315787381, 10.707034, 8.174202, -6.9144216, -0.117355965, 0.30761436, -0.30146983, 0.007456851, -0.060720075
1566315787391, 10.625293, 8.128696, -6.840176, 0.1820215, 0.32886663, -0.3206446, 0.037284255, -0.0628506
1566315787392, 10.670871, 8.157437, -6.8737063, 0.27542725, 0.35113353, -0.3355583, 0.058589544, -0.08522116
1566315787400, 10.739244, 8.1143265, -7.0198026, 0.45984375, 0.37170556, -0.35260254, 0.07243799, -0.09267801
1566315787401, 10.741475, 8.1143265, -7.0174074, 0.5412744, 0.37941813, -0.35260254, 0.099069595, -0.099069595
1566315787410, 10.843344, 8.078402, -7.199429, 0.69695073, 0.38064837, -0.34621096, 0.10972224, -0.113983296
1566315787411, 10.824528, 8.131092, -7.0916533, 0.87418216, 0.38245517, -0.33662358, 0.13954964, -0.11611383
1566315787420, 10.822437, 8.121511, -7.089258, 0.9532178, 0.39266956, -0.33129725, 0.165116, -0.13102753
1566315787421, 10.818158, 8.109536, -7.079678, 1.0705738, 0.39051497, -0.30679616, 0.1917476, -0.1470065
1566315787430, 10.856817, 8.121511, -7.117998, 1.1160791, 0.39056727, -0.294013, 0.21092236, -0.1470065
1566315787431, 10.845352, 8.047266, -7.182664, 1.1280543, 0.39067912, -0.28016454, 0.21731395, -0.16405073
1566315787442, 10.900301, 8.047266, -7.2449346, 1.2525953, 0.38580078, -0.2609898, 0.21624869, -0.18429075
1566315787443, 11.007872, 8.135881, -7.2808595, 1.4034815, 0.38407624, -0.23542345, 0.23861924, -0.18748654
1566315787451, 11.084103, 8.171807, -7.3814507, 1.2621753, 0.37876853, -0.20772657, 0.23435818, -0.2130529
1566315787452, 11.212916, 8.255632, -7.4820414, 1.2621753, 0.38010094, -0.18322548, 0.24074976, -0.23009712
1566315787461, 11.259237, 8.229287, -7.5874224, 1.2166699, 0.37883446, -0.16298546, 0.24074976, -0.2428803
1566315787463, 11.226901, 8.147857, -7.6329274, 1.1807446, 0.3835026, -0.14913702, 0.24607609, -0.25353295
1566315787471, 11.124476, 7.9826, -7.676038, 1.0538087, 0.38045454, -0.13528858, 0.24714136, -0.25566345
1566315787472, 11.164674, 7.8987746, -7.838899, 0.90052736, 0.38427266, -0.13422333, 0.25246766, -0.25672874
1566315787481, 11.267986, 7.8844047, -8.013736, 0.76401126, 0.37357077, -0.13528858, 0.2545982, -0.23755397
1566315787482, 11.225595, 7.7574687, -8.097562, 0.51492923, 0.36786345, -0.14168017, 0.25992453, -0.21837921
1566315787492, 11.428024, 7.805369, -8.334668, 0.45744875, 0.37380007, -0.16192019, 0.26525086, -0.20772657
1566315787493, 11.478741, 7.726333, -8.487949, 0.14130616, 0.38715583, -0.18002969, 0.2876214, -0.18642128
1566315787502, 11.511044, 7.654483, -8.595725, 0.16286133, 0.42345974, -0.20559604, 0.3334278, -0.16085494
1566315787503, 11.369306, 7.479646, -8.562195, 0.06945557, 0.4664849, -0.23648871, 0.37710363, -0.13954964
1566315787513, 11.271361, 7.2281694, -8.648416, 0.045505375, 0.49624863, -0.2514024, 0.41545314, -0.10226539
1566315787514, 11.019258, 6.952742, -8.5430355, 0.3161426, 0.52099276, -0.2514024, 0.45167214, -0.06498113
1566315787522, 10.786213, 6.7707205, -8.384964, 0.4382886, 0.5301176, -0.25033715, 0.46658584, -0.025566347
1566315787523, 10.449397, 6.5288234, -8.131092, 0.6706055, 0.51721084, -0.221575, 0.46658584, 0.026631612
1566315787532, 10.216507, 6.2845316, -8.006551, 0.8813672, 0.5049151, -0.19600865, 0.45912898, 0.07563378
1566315787534, 9.903519, 6.095325, -7.7311234, 1.0753639, 0.4692233, -0.15233281, 0.42717105, 0.12037488
1566315787543, 9.751599, 6.07856, -7.5012016, 1.3699512, 0.43601862, -0.096939065, 0.39521313, 0.15659387
1566315787544, 9.586955, 6.0570045, -7.2832546, 1.4753321, 0.41552827, -0.035153728, 0.36751625, 0.19068234
1566315787553, 9.564788, 6.207891, -7.1132083, 1.5328126, 0.38759527, 0.035153728, 0.3153183, 0.22264028
1566315787555, 9.704941, 6.4114676, -7.079678, 1.719624, 0.38062152, 0.13635385, 0.27696875, 0.22264028
1566315787564, 9.761715, 6.6557593, -6.9168167, 1.7747096, 0.39555177, 0.22264028, 0.23435818, 0.22796659
1566315787566, 9.969397, 6.940767, -6.9024467, 1.8896705, 0.4355173, 0.33129725, 0.1917476, 0.20772657
1566315787572, 10.036404, 7.180269, -6.8018556, 1.705254, 0.49513146, 0.43249738, 0.17044231, 0.17044231
1566315787574, 10.0574465, 7.36708, -6.662945, 1.575923, 0.57185256, 0.5336975, 0.16405073, 0.12357068
1566315787583, 10.025316, 7.3934255, -6.605464, 1.4873072, 0.6416801, 0.61891866, 0.1555286, 0.06711166
1566315787585, 9.948333, 7.3814507, -6.574329, 1.1232642, 0.7096525, 0.69029135, 0.16405073, 0.013848438
1566315787593, 9.840574, 7.3551054, -6.485713, 0.8214917, 0.7741666, 0.75420725, 0.17150758, -0.033023197
1566315787594, 9.673465, 7.2401443, -6.3994923, 0.45026368, 0.8254157, 0.7978831, 0.18322548, -0.10546118
1566315787603, 9.578124, 7.175479, -6.344407, -0.038320314, 0.8512376, 0.813862, 0.19068234, -0.16085494
1566315787604, 9.522846, 7.084468, -6.344407, -0.49337405, 0.8746392, 0.8202536, 0.21092236, -0.21837921
1566315787614, 9.455491, 6.962322, -6.334827, -0.89573735, 0.8712704, 0.7978831, 0.22583607, -0.26738137
1566315787615, 9.43173, 6.799461, -6.4042826, -1.3076807, 0.8840058, 0.78296936, 0.24074976, -0.3323625
1566315787623, 9.445862, 6.70845, -6.452183, -1.6094532, 0.8613887, 0.7286409, 0.2545982, -0.38242993
1566315787624, 9.470655, 6.586304, -6.5144534, -1.9687061, 0.84308195, 0.67537767, 0.28016454, -0.41971418
1566315787633, 9.41068, 6.3156667, -6.6437845, -2.1291726, 0.82462615, 0.6199839, 0.28442562, -0.46339005
1566315787634, 9.422811, 6.1719656, -6.744375, -2.2824538, 0.7878615, 0.54648066, 0.30040458, -0.48149952
1566315787644, 9.552533, 6.1144853, -6.9096317, -2.4740553, 0.7553116, 0.46658584, 0.3110572, -0.50600064
1566315787645, 9.557013, 5.9540186, -6.943162, -2.7710378, 0.71641624, 0.3749731, 0.3057309, -0.52837116
1566315787654, 9.497149, 5.7073317, -7.0030375, -2.929109, 0.69472396, 0.28442562, 0.29827404, -0.5592638
1566315787655, 9.615942, 5.743257, -7.0581226, -3.1087356, 0.6597935, 0.18535602, 0.30679616, -0.5539375
1566315787664, 9.914322, 5.738467, -7.316785, -3.439248, 0.6519749, 0.066046394, 0.3057309, -0.572047
1566315787666, 9.949254, 5.6666164, -7.398216, -3.4847536, 0.64953274, -0.049002163, 0.3057309, -0.57098174
1566315787680, 10.058844, 5.704937, -7.486831, -3.547024, 0.68207294, -0.17044231, 0.3206446, -0.5773733
1566315787690, 10.228261, 5.745652, -7.7143583, -3.4775686, 0.71876067, -0.29188246, 0.32277513, -0.572047
1566315787691, 10.412789, 5.8677983, -7.9155397, -3.3673975, 0.7610052, -0.4016047, 0.32597092, -0.5581986
1566315787693, 10.400664, 5.702542, -8.092772, -3.187771, 0.80421823, -0.50173956, 0.330232, -0.53476274
1566315787694, 10.599064, 5.8917484, -8.3179035, -2.9051588, 0.8611732, -0.5997439, 0.3291667, -0.5230448
1566315787695, 10.603809, 5.9061184, -8.416099, -2.5938063, 0.89763683, -0.6743124, 0.30999196, -0.5049353
1566315787705, 10.659603, 5.9540186, -8.562195, -2.2058132, 0.92358184, -0.7350325, 0.28975195, -0.47830373
1566315787706, 10.743058, 6.071375, -8.669971, -1.839375, 0.955823, -0.7882957, 0.28868666, -0.45699844
1566315787715, 10.844242, 6.1959157, -8.760982, -1.5663428, 0.9561649, -0.8042747, 0.28016454, -0.4346279
1566315787716, 10.804687, 6.2605815, -8.717872, -1.2430152, 0.96170264, -0.8213189, 0.294013, -0.4048005
1566315787725, 10.880356, 6.2725563, -8.847202, -0.87418216, 0.9664884, -0.8330368, 0.29827404, -0.3888215
1566315787727, 10.847858, 6.318062, -8.799302, -0.5748047, 0.9418805, -0.81918836, 0.28868666, -0.36432046
1566315787734, 10.828785, 6.2605815, -8.830438, -0.30177248, 0.90529245, -0.7861652, 0.28442562, -0.3472762
1566315787736, 10.692034, 6.0833497, -8.792117, -0.10538086, 0.86508197, -0.76272935, 0.27164245, -0.30466563
1566315787745, 10.707342, 6.1552005, -8.760982, 0.07664063, 0.80604273, -0.7190535, 0.24501082, -0.2695119
1566315787747, 10.530974, 6.0330544, -8.624466, 0.34967285, 0.72858244, -0.6562029, 0.20559604, -0.24074976
1566315787755, 10.445896, 5.870193, -8.634046, 0.33290774, 0.652249, -0.60293967, 0.15978967, -0.19068234
1566315787756, 10.280773, 5.6594315, -8.576566, 0.3281177, 0.5666376, -0.5368933, 0.10439592, -0.14807177
1566315787765, 10.064687, 5.4175344, -8.475974, 0.32572266, 0.49196535, -0.48043427, 0.04261058, -0.096939065
1566315787766, 9.974654, 5.360054, -8.406519, 0.3065625, 0.4229127, -0.42077947, -0.037284255, -0.020240024
1566315787776, 9.659183, 5.230723, -8.119117, 0.13891114, 0.3860669, -0.37071204, -0.10226539, 0.034088463
1566315787778, 9.578051, 5.1756372, -8.059241, 0.021555176, 0.37392148, -0.31957933, -0.16298546, 0.10546118
1566315787785, 9.378433, 5.094207, -7.8724294, -0.17004639, 0.38993338, -0.28122982, -0.22796659, 0.14487597
1566315787786, 9.294261, 5.216353, -7.690408, -0.17483643, 0.4164871, -0.24394555, -0.26525086, 0.20879184
1566315787796, 9.344271, 5.470225, -7.5706573, -0.2778223, 0.4408097, -0.20985709, -0.30040458, 0.24501082
1566315787797, 9.352362, 5.6738014, -7.424561, -0.3879932, 0.44604573, -0.17896444, -0.3089267, 0.26738137
1566315787806, 9.475583, 5.855823, -7.431746, -0.51492923, 0.4411134, -0.15020229, -0.30679616, 0.2790993
1566315787808, 9.508051, 6.016289, -7.3455253, -0.5005591, 0.4335901, -0.12463594, -0.28336033, 0.30360037
1566315787815, 9.539318, 6.1719656, -7.2401443, -0.69695073, 0.41423994, -0.11717909, -0.25246766, 0.30679616
1566315787817, 9.611636, 6.2965064, -7.213799, -0.83586186, 0.3906922, -0.111852765, -0.2066613, 0.3121225
1566315787826, 9.587523, 6.346802, -7.1132083, -1.0202783, 0.37732172, -0.11824436, -0.16618125, 0.3174488
1566315787828, 9.583712, 6.368357, -7.0581226, -1.214275, 0.36339572, -0.111852765, -0.11824436, 0.32490566
1566315787836, 9.62631, 6.476133, -6.991062, -1.3603711, 0.35845158, -0.13635385, -0.084155895, 0.3206446
1566315787838, 9.663187, 6.550379, -6.943162, -1.5040723, 0.36613804, -0.16298546, -0.05752428, 0.32277513
1566315787846, 9.599223, 6.485713, -6.8856816, -1.6334034, 0.38174537, -0.1917476, -0.036218993, 0.32810146
1566315787847, 9.6286335, 6.5312185, -6.926397, -1.4418018, 0.40244165, -0.21837921, -0.03089267, 0.33662358
1566315787859, 9.665339, 6.5623536, -6.9311867, -1.5208374, 0.41319218, -0.24181503, -0.01917476, 0.33449304
1566315787860, 9.728899, 6.576724, -6.962322, -1.710044, 0.43314627, -0.26525086, -0.018109497, 0.34194988
1566315787866, 9.838589, 6.6533647, -7.070098, -1.5950831, 0.45591578, -0.294013, -0.039414786, 0.34621096
1566315787868, 9.841185, 6.7228203, -7.0413575, -1.4394068, 0.47426528, -0.30999196, -0.06711166, 0.35260254
1566315787877, 9.90562, 6.7850904, -7.1132083, -1.219065, 0.5020426, -0.32170987, -0.10546118, 0.37071204
1566315787878, 10.164738, 6.981482, -7.29523, -1.1663746, 0.5341853, -0.3387541, -0.15339808, 0.3834952
1566315787887, 10.282407, 7.168294, -7.3096, -0.95561284, 0.5393532, -0.34621096, -0.17896444, 0.37284255
1566315787889, 10.492424, 7.3958206, -7.398216, -0.81191164, 0.532908, -0.3291667, -0.21624869, 0.35899413
1566315787896, 10.717872, 7.704778, -7.4197707, -0.67539555, 0.53369963, -0.31851408, -0.24607609, 0.350472
1566315787898, 10.840284, 7.800579, -7.4988065, -0.6562354, 0.52520674, -0.3089267, -0.26312032, 0.3334278
1566315787909, 10.802551, 7.8436894, -7.4030056, -0.60594, 0.51095176, -0.2972088, -0.27803403, 0.3089267
1566315787911, 11.016831, 8.040081, -7.5059915, -0.6227051, 0.51063627, -0.29507825, -0.28549087, 0.30360037
1566315787917, 11.007813, 8.135881, -7.398216, -0.49576905, 0.49289522, -0.29614353, -0.27377295, 0.28336033
1566315787919, 11.074158, 8.121511, -7.5155716, -0.4406836, 0.48182583, -0.28336033, -0.28549087, 0.26525086
1566315787927, 11.060046, 8.138277, -7.4772515, -0.42870852, 0.4635908, -0.27483824, -0.27696875, 0.25033715
1566315787929, 11.052581, 8.171807, -7.429351, -0.43110353, 0.4415762, -0.27483824, -0.26525086, 0.221575
1566315787937, 10.92702, 8.01613, -7.417376, -0.3520679, 0.42591667, -0.2695119, -0.24714136, 0.21837921
1566315787939, 10.91503, 8.020921, -7.3958206, -0.32332766, 0.40529078, -0.25033715, -0.23116238, 0.21944448
1566315787947, 10.843868, 7.846084, -7.4820414, -0.21794678, 0.38747668, -0.24074976, -0.21837921, 0.21092236
1566315787949, 10.608691, 7.5970025, -7.4006104, -0.24668702, 0.4038603, -0.24714136, -0.22264028, 0.22903186
1566315787960, 10.599172, 7.6209526, -7.359895, -0.30895755, 0.3997411, -0.24181503, -0.2130529, 0.23648871
1566315787962, 10.405531, 7.5203614, -7.175479, -0.48139894, 0.40214968, -0.25246766, -0.20133498, 0.2396845
1566315787967, 10.1901245, 7.3527102, -7.031778, -0.5748047, 0.40010574, -0.26205507, -0.18429075, 0.2396845
1566315787969, 10.088929, 7.2976246, -6.945557, -0.5388794, 0.40089342, -0.26738137, -0.16618125, 0.24820662
1566315787978, 10.11688, 7.3646855, -6.9144216, -0.5508545, 0.4006867, -0.28336033, -0.13848437, 0.24714136
1566315787979, 10.090719, 7.3862405, -6.8521514, -0.5604346, 0.38900387, -0.28229508, -0.10013486, 0.24820662
1566315787988, 10.094256, 7.486831, -6.75156, -0.50774413, 0.3813498, -0.28975195, -0.0777643, 0.23542345
1566315787990, 10.057045, 7.3814507, -6.8114357, -0.5125342, 0.36544782, -0.28442562, -0.05965481, 0.221575
1566315787997, 9.941178, 7.2521195, -6.7874856, -0.4047583, 0.35946953, -0.28336033, -0.035153728, 0.21837921
1566315787998, 9.874776, 7.168294, -6.7803006, -0.39278322, 0.3408763, -0.2695119, -0.020240024, 0.20772657
1566315788008, 9.628948, 7.053333, -6.550379, -0.244292, 0.32413635, -0.24394555, -0.0127831735, 0.2130529
1566315788009, 9.550709, 6.9719024, -6.5264287, -0.119750984, 0.3027788, -0.22583607, -0.011717909, 0.20133498
1566315788017, 9.460663, 6.9719024, -6.3947024, 0.06706055, 0.27459452, -0.19281286, -0.014913702, 0.1949434
1566315788018, 9.633156, 7.074888, -6.5360084, 0.15567628, 0.25131664, -0.16192019, -0.037284255, 0.18855181
1566315788027, 9.608423, 7.0198026, -6.559959, 0.10538086, 0.21012999, -0.12037488, -0.049002163, 0.165116
1566315788032, 9.657518, 7.1299734, -6.5120583, 0.15567628, 0.17963846, -0.07243799, -0.06178534, 0.15233281
1566315788037, 9.797279, 7.2449346, -6.593489, 0.15328126, 0.16058663, -0.029827405, -0.07563378, 0.13848437
1566315788039, 9.705297, 7.103628, -6.6102543, 0.18920656, 0.15627469, 0.013848438, -0.07882957, 0.13422333
1566315788048, 9.639428, 7.1084185, -6.5072684, 0.21076173, 0.17469688, 0.066046394, -0.094808534, 0.13102753
1566315788049, 9.57938, 6.935977, -6.6030693, 0.23710695, 0.20910683, 0.10439592, -0.11930962, 0.13635385
1566315788060, 9.605712, 6.969507, -6.6102543, -0.014370117, 0.23470172, 0.13848437, -0.14807177, 0.11824436
1566315788061, 9.631708, 6.9862723, -6.6270194, -0.21076173, 0.2686178, 0.16618125, -0.17896444, 0.111852765
1566315788069, 9.678356, 6.962322, -6.71324, -0.35925296, 0.29174635, 0.1768339, -0.20559604, 0.10759171
1566315788070, 9.622228, 6.943162, -6.6294146, -0.6562354, 0.3037517, 0.18216023, -0.21411815, 0.11504856
1566315788080, 9.748332, 7.072493, -6.6581545, -0.82388675, 0.2958694, 0.17150758, -0.21731395, 0.10439592
1566315788081, 9.818483, 7.110813, -6.6844997, -1.0753639, 0.26288086, 0.13102753, -0.20772657, 0.09374327
1566315788088, 9.7137375, 7.079678, -6.5360084, -1.2310401, 0.22769016, 0.10226539, -0.18109496, 0.09267801
1566315788091, 9.836902, 7.189849, -6.586304, -1.3004956, 0.18635127, 0.06924219, -0.14807177, 0.08948222
1566315788099, 9.721863, 7.151529, -6.471343, -1.22146, 0.14287655, 0.023435818, -0.11824436, 0.07669904
1566315788099, 9.863305, 7.3455253, -6.454578, -1.2909156, 0.104052946, -0.0127831735, -0.070307456, 0.07563378
1566315788109, 10.0189495, 7.441326, -6.6030693, -1.1855347, 0.07433226, -0.043675844, -0.023435818, 0.05539375
1566315788110, 10.099619, 7.6281376, -6.5336137, -1.0609937, 0.08205994, -0.06924219, 0.023435818, 0.037284255
1566315788119, 10.175823, 7.7167535, -6.557564, -0.9987232, 0.1316841, -0.098004326, 0.084155895, 0.025566347
1566315788121, 10.124251, 7.692803, -6.5096636, -0.97237796, 0.17206907, -0.11824436, 0.12463594, 0.00958738
1566315788129, 10.183151, 7.7167535, -6.576724, -0.94603276, 0.2361862, -0.15020229, 0.18216023, -0.0063915867
1566315788130, 10.120836, 7.656878, -6.5407987, -1.0106983, 0.28806096, -0.17576863, 0.22690132, -0.024501082
1566315788140, 10.1882515, 7.709568, -6.564749, -1.1256592, 0.33735767, -0.20026971, 0.26844665, -0.040480047
1566315788141, 10.144004, 7.656878, -6.564749, -1.0849439, 0.39070958, -0.23435818, 0.30786142, -0.054328486
1566315788149, 9.956364, 7.441326, -6.5264287, -1.0777588, 0.4300556, -0.26631612, 0.3323625, -0.05965481
1566315788150, 9.909589, 7.3383403, -6.576724, -1.0466236, 0.48435336, -0.30466563, 0.3717773, -0.05965481
1566315788159, 9.93768, 7.2640944, -6.6988697, -1.0562036, 0.5044384, -0.33662358, 0.36964676, -0.06711166
1566315788160, 9.8473425, 7.206614, -6.6437845, -0.94603276, 0.51941335, -0.35473305, 0.37284255, -0.070307456
1566315788170, 9.845925, 7.185059, -6.67971, -0.83586186, 0.5383487, -0.37603834, 0.37816888, -0.07350325
1566315788171, 9.743569, 7.0988383, -6.6365995, -0.7065308, 0.5380482, -0.38562572, 0.36751625, -0.07563378
1566315788180, 9.69832, 7.0413575, -6.631809, -0.7041358, 0.53917325, -0.40053943, 0.350472, -0.08628642
1566315788181, 9.614966, 6.962322, -6.605464, -0.5843848, 0.53658146, -0.39840892, 0.3472762, -0.09267801
1566315788191, 9.75061, 7.0916533, -6.6773148, -0.44307864, 0.53228486, -0.4016047, 0.33768883, -0.08948222
1566315788192, 9.897421, 7.209009, -6.7731156, -0.33769777, 0.528822, -0.39840892, 0.3323625, -0.10226539
1566315788201, 9.927412, 7.1874537, -6.8425713, -0.2706372, 0.5242379, -0.3930826, 0.32490566, -0.12144015
1566315788202, 9.958218, 7.1395535, -6.940767, -0.13651612, 0.51574427, -0.3717773, 0.33129725, -0.13422333
1566315788210, 9.928481, 7.1156034, -6.9240017, -0.033530276, 0.5067905, -0.36112466, 0.32277513, -0.14913702
1566315788212, 9.837745, 6.9551373, -6.957532, -0.0047900393, 0.49113774, -0.3472762, 0.3110572, -0.15446335
1566315788221, 9.831806, 6.7970657, -7.103628, 0.05269043, 0.47384638, -0.32490566, 0.3089267, -0.15339808
1566315788223, 9.787648, 6.725215, -7.110813, 0.07664063, 0.45585603, -0.3153183, 0.29294774, -0.15020229
1566315788230, 9.794675, 6.6246243, -7.213799, 0.10538086, 0.43624628, -0.30679616, 0.27803403, -0.13741912
1566315788231, 9.9895735, 6.672525, -7.434141, 0.050295413, 0.42290598, -0.2908172, 0.28336033, -0.11824436
1566315788243, 9.97535, 6.550379, -7.5227566, 0.09101075, 0.4134379, -0.26631612, 0.30679616, -0.07669904
1566315788244, 10.074152, 6.449788, -7.7359133, 0.21076173, 0.39204192, -0.22796659, 0.3174488, -0.03089267
1566315788251, 9.997742, 6.1935205, -7.8412943, 0.3305127, 0.36618766, -0.19387813, 0.30999196, 0.020240024
1566315788252, 9.887746, 6.0210795, -7.829319, 0.46463382, 0.33352816, -0.1470065, 0.2876214, 0.083090626
1566315788261, 9.772078, 5.9252787, -7.7550735, 0.49337405, 0.33387843, -0.113983296, 0.27377295, 0.15339808
1566315788262, 9.80572, 5.9156985, -7.810159, 0.39757326, 0.33994123, -0.082025364, 0.24820662, 0.21731395
1566315788270, 9.735198, 5.997129, -7.664063, 0.26584718, 0.36793903, -0.035153728, 0.22264028, 0.2908172
1566315788277, 9.8937645, 6.2342362, -7.680828, 0.16046631, 0.38075864, -0.023435818, 0.18429075, 0.3323625
1566315788281, 9.978797, 6.5479836, -7.5299416, 0.016765138, 0.40801856, 0.0010652645, 0.17044231, 0.37071204
1566315788282, 10.192484, 6.7707205, -7.6185575, -0.040715333, 0.4114914, 0.010652645, 0.12463594, 0.3920173
1566315788291, 10.270232, 6.9886675, -7.5251517, -0.09101075, 0.41672543, 0.013848438, 0.098004326, 0.4048005
1566315788292, 10.383559, 7.2904396, -7.3886356, -0.27542725, 0.40445694, 0.007456851, 0.0628506, 0.39947417
1566315788301, 10.5430975, 7.585027, -7.31439, -0.3520679, 0.41416326, 0.015978966, 0.046871636, 0.4111921
1566315788302, 10.592026, 7.7167535, -7.247329, -0.34488282, 0.38298884, 0.004261058, 0.020240024, 0.38242993
1566315788311, 10.6039, 7.810159, -7.168294, -0.244292, 0.37835637, 0.011717909, 0.002130529, 0.37816888
1566315788312, 10.507096, 7.879615, -6.947952, -0.19160157, 0.36878005, 0.027696876, 0.0127831735, 0.36751625
1566315788322, 10.526944, 8.0017605, -6.840176, -0.019160157, 0.35177767, 0.049002163, -0.002130529, 0.34834146
1566315788322, 10.488481, 7.9634404, -6.825806, 0.014370117, 0.33091336, 0.07243799, -0.008522116, 0.32277513
1566315788333, 10.388633, 7.8868, -6.758745, 0.20357667, 0.32471523, 0.09161274, -0.017044231, 0.3110572
1566315788334, 10.355325, 7.975415, -6.6030693, 0.1580713, 0.30873013, 0.12357068, -0.03089267, 0.28122982
1566315788342, 10.183697, 7.814949, -6.5288234, 0.09340577, 0.3058033, 0.15339808, -0.036218993, 0.26205507
1566315788343, 9.997666, 7.7167535, -6.356382, -0.038320314, 0.30978873, 0.17044231, -0.04580637, 0.2545982
1566315788355, 9.956136, 7.6329274, -6.3923073, -0.038320314, 0.31880608, 0.19600865, -0.056459017, 0.24501082
1566315788356, 9.589631, 7.4197707, -6.0737696, -0.13172609, 0.32289642, 0.22264028, -0.05219796, 0.22796659
1566315788365, 9.610056, 7.460486, -6.0570045, -0.083825685, 0.32500172, 0.24501082, -0.04474111, 0.20879184
1566315788367, 9.518904, 7.4054008, -5.980364, 0.06945557, 0.35618725, 0.29614353, -0.049002163, 0.1917476
1566315788373, 9.472563, 7.3766603, -5.9396486, 0.18681154, 0.38968593, 0.34940675, -0.05006743, 0.165116
1566315788374, 9.447985, 7.422166, -5.836663, 0.3305127, 0.4447833, 0.41971418, -0.06711166, 0.13102753
1566315788383, 9.377627, 7.3646855, -5.7935524, 0.36883304, 0.49656636, 0.47830373, -0.09054748, 0.098004326
1566315788384, 9.401837, 7.4101906, -5.7648125, 0.5005591, 0.5808193, 0.56245965, -0.12357068, 0.07563378
1566315788396, 9.331352, 7.340735, -5.743257, 0.45026368, 0.6767599, 0.65513766, -0.16724652, 0.02876214
1566315788397, 9.412912, 7.3886356, -5.824688, 0.28979737, 0.75644356, 0.72437984, -0.21731395, -0.015978966
1566315788406, 9.444586, 7.3646855, -5.910908, 0.15088624, 0.8407805, 0.7957525, -0.26738137, -0.046871636
1566315788407, 9.634981, 7.455696, -6.10251, -0.06945557, 0.930559, 0.8671253, -0.32810146, -0.07989483
1566315788416, 9.745768, 7.4844365, -6.231841, -0.35685793, 1.0195031, 0.9257148, -0.4101268, -0.11930962
1566315788417, 10.067118, 7.6425076, -6.5240335, -0.613125, 1.0966762, 0.9715212, -0.4857606, -0.15126756
1566315788426, 10.311763, 7.683223, -6.7970657, -1.0490186, 1.1781546, 1.0024139, -0.59228706, -0.18002969
1566315788427, 10.772253, 7.975415, -7.089258, -1.4753321, 1.2409142, 1.0162623, -0.68176925, -0.20559604
1566315788434, 11.37776, 8.277188, -7.582632, -1.8561403, 1.3031812, 1.0173275, -0.77870834, -0.23861924
1566315788435, 12.015658, 8.655601, -8.032896, -2.2201831, 1.3344873, 0.99921805, -0.84581995, -0.25885928
1566315788444, 12.641971, 9.060359, -8.423284, -2.6033864, 1.3464458, 0.9651296, -0.89162636, -0.294013
1566315788445, 13.306283, 9.438772, -8.928633, -2.8716285, 1.3302782, 0.91612744, -0.9193232, -0.29188246
1566315788457, 13.833988, 9.702225, -9.292676, -3.300337, 1.2810707, 0.85753787, -0.8990832, -0.3121225
1566315788458, 14.276867, 9.946517, -9.625584, -3.4991236, 1.2310097, 0.7914915, -0.8831042, -0.330232
1566315788467, 14.584532, 10.080638, -9.862691, -3.7170706, 1.1487379, 0.6892261, -0.84688526, -0.3568636
1566315788468, 14.666811, 10.2387085, -9.7812605, -3.8224514, 1.0597973, 0.58483016, -0.8042747, -0.36645097
1566315788477, 14.715799, 10.166859, -9.845925, -4.030818, 0.95550185, 0.45380265, -0.7499462, -0.38029942
1566315788478, 14.54438, 10.059082, -9.575289, -4.3206153, 0.8545181, 0.3121225, -0.6860303, -0.40266997
1566315788487, 14.199797, 9.874666, -9.237591, -4.3349857, 0.7709652, 0.1587244, -0.61891866, -0.4314321
1566315788488, 14.083032, 9.836346, -9.09868, -4.3349857, 0.7123856, -0.002130529, -0.54648066, -0.45699844
1566315788493, 13.645199, 9.644744, -8.756192, -4.061953, 0.6894664, -0.15126756, -0.47297743, -0.47830373
1566315788494, 13.181075, 9.414823, -8.5119, -3.5566041, 0.6968149, -0.2876214, -0.38029942, -0.50813115
1566315788503, 12.731686, 9.060359, -8.399334, -3.0752053, 0.7329097, -0.4016047, -0.30360037, -0.53263223
1566315788504, 12.441213, 9.043594, -8.188572, -2.43813, 0.7707224, -0.4878911, -0.21624869, -0.55606806
1566315788513, 12.201367, 8.849598, -8.202942, -1.8082398, 0.8082634, -0.5411543, -0.13102753, -0.5858955
1566315788514, 11.940192, 8.713081, -8.087981, -1.1112891, 0.8541143, -0.56885123, -0.03834952, -0.6359629
1566315788523, 11.597722, 8.466394, -7.9083548, -0.5340894, 0.8724828, -0.56459016, 0.058589544, -0.6625945
1566315788524, 11.295668, 8.174202, -7.795789, -0.014370117, 0.9005669, -0.5411543, 0.15446335, -0.7030745
1566315788537, 10.938261, 7.702383, -7.7550735, 0.42152345, 0.9015876, -0.4708469, 0.22903186, -0.7339672
1566315788538, 10.559854, 7.2976246, -7.573052, 0.9508228, 0.91012925, -0.39734364, 0.29507825, -0.7637946
1566315788545, 10.098478, 6.7874856, -7.3551054, 1.346001, 0.89490706, -0.29507825, 0.3472762, -0.7701862
1566315788546, 9.768808, 6.3875175, -7.213799, 1.6094532, 0.86933994, -0.18322548, 0.3568636, -0.77125144
1566315788555, 9.369627, 5.9061184, -7.060518, 1.7483643, 0.84300786, -0.054328486, 0.35260254, -0.7637946
1566315788556, 9.057505, 5.4247193, -7.0054326, 1.8800904, 0.82183, 0.082025364, 0.32597092, -0.7499462
1566315788565, 8.713403, 5.0367265, -6.8832865, 1.7818946, 0.774615, 0.20240025, 0.26312032, -0.69987875
1566315788566, 8.495791, 4.761299, -6.832991, 1.6789087, 0.76879406, 0.3291667, 0.18748654, -0.6689861
1566315788575, 8.321414, 4.567302, -6.8018556, 1.456172, 0.7652633, 0.44315, 0.112918034, -0.6135923
1566315788576, 8.337129, 4.6128078, -6.837781, 1.214275, 0.7926162, 0.5486112, 0.0053263223, -0.572047
1566315788585, 8.280707, 4.622388, -6.7946706, 1.0178833, 0.8578726, 0.6508766, -0.094808534, -0.55074173
1566315788586, 8.408146, 4.864285, -6.821016, 0.71371585, 0.92333424, 0.7318367, -0.20559604, -0.52411014
1566315788598, 8.51848, 5.024751, -6.871311, 0.31853762, 1.011851, 0.8117315, -0.30040458, -0.52411014
1566315788599, 8.652323, 5.094207, -6.9934573, -0.05748047, 1.090591, 0.8767126, -0.40586576, -0.50600064
1566315788608, 8.71687, 5.2666483, -6.9311867, -0.4526587, 1.1596527, 0.9129316, -0.49215218, -0.5187838
1566315788609, 8.787945, 5.357659, -6.8928666, -1.0059083, 1.2132483, 0.9374327, -0.57311225, -0.51452273
1566315788618, 9.017802, 5.494175, -6.9934573, -1.4920973, 1.2451297, 0.9267801, -0.64555025, -0.52411014
1566315788619, 9.145172, 5.585186, -6.964717, -1.9830762, 1.2403367, 0.8969527, -0.6849651, -0.51452273
1566315788628, 9.336308, 5.6690116, -7.062913, -2.2680836, 1.2350367, 0.8479505, -0.7275756, -0.52624065
1566315788629, 9.559714, 5.724097, -7.173084, -2.6776319, 1.1912048, 0.76592517, -0.74675035, -0.52411014
1566315788639, 9.777917, 5.736072, -7.2497244, -3.1853762, 1.1389138, 0.6828345, -0.753142, -0.5134575
1566315788640, 9.9361515, 5.7648125, -7.31439, -3.4631984, 1.0710126, 0.5752428, -0.74035877, -0.51771855
1566315788648, 10.170329, 5.8821683, -7.438931, -3.6739602, 0.99615496, 0.45167214, -0.7339672, -0.49960902
1566315788649, 10.158929, 5.807923, -7.4006104, -3.8344264, 0.91706526, 0.31638354, -0.70840085, -0.4889564
1566315788658, 10.349972, 5.961204, -7.4101906, -4.0835085, 0.84314656, 0.1768339, -0.6668556, -0.48469532
1566315788659, 10.394508, 6.0091043, -7.4676714, -4.021238, 0.7857681, 0.018109497, -0.6327671, -0.46552056
1566315788667, 10.459443, 6.1623855, -7.462881, -3.9661524, 0.74073195, -0.12357068, -0.56885123, -0.45806372
1566315788668, 10.432579, 6.1599903, -7.5251517, -3.776946, 0.72146094, -0.25885928, -0.5070659, -0.44315
1566315788677, 10.4422, 6.231841, -7.589817, -3.5494192, 0.71043, -0.36751625, -0.43782368, -0.42184472
1566315788678, 10.419947, 6.3012967, -7.680828, -3.1422658, 0.7460419, -0.49534798, -0.36005938, -0.4261058
1566315788689, 10.373585, 6.310877, -7.7407036, -2.804568, 0.7760289, -0.58483016, -0.29294774, -0.41758367
1566315788690, 10.267508, 6.2438164, -7.807764, -2.339934, 0.80079055, -0.66579026, -0.19813919, -0.39840892
1566315788700, 10.157891, 6.08814, -7.8772197, -2.0166066, 0.818008, -0.716923, -0.13315806, -0.37071204
1566315788701, 10.081769, 5.9947343, -7.92033, -1.7244141, 0.846044, -0.7669904, -0.056459017, -0.35260254
1566315788709, 9.9026575, 5.965994, -7.7790236, -1.3986914, 0.87307113, -0.8127968, 0.0127831735, -0.31851408
1566315788710, 9.805989, 5.7767873, -7.8484793, -1.089734, 0.8861688, -0.8383631, 0.0628506, -0.28016454
1566315788719, 9.634087, 5.6618266, -7.7526784, -0.8095166, 0.8928569, -0.8522116, 0.10439592, -0.24501082
1566315788720, 9.612824, 5.6594315, -7.7383084, -0.7041358, 0.90406877, -0.87032104, 0.12037488, -0.2130529
1566315788726, 9.536193, 5.5636306, -7.7335186, -0.42152345, 0.8953939, -0.8671253, 0.15020229, -0.165116
1566315788730, 9.498432, 5.5660257, -7.695198, -0.15328126, 0.89041966, -0.8692558, 0.14168017, -0.13102753
1566315788737, 9.48868, 5.6690116, -7.6089773, 0.028740235, 0.8629228, -0.84368944, 0.14807177, -0.10439592
1566315788738, 9.424317, 5.6690116, -7.5227566, 0.29698244, 0.83054364, -0.8181231, 0.13102753, -0.05752428
1566315788747, 9.467635, 5.740862, -7.5059915, 0.58198977, 0.78727436, -0.777643, 0.11824436, -0.033023197
1566315788748, 9.483552, 5.750442, -7.5012016, 0.7759864, 0.72850615, -0.7233146, 0.08628642, -0.00958738
1566315788759, 9.549761, 5.8893533, -7.4509063, 0.9987232, 0.66584486, -0.6625945, 0.06178534, 0.022370555
1566315788760, 9.594535, 5.872588, -7.4964113, 1.1711646, 0.59116894, -0.58909124, 0.015978966, 0.046871636
1566315788768, 9.515864, 5.8917484, -7.3790555, 1.1783496, 0.52517754, -0.5187838, -0.03089267, 0.07563378
1566315788769, 9.538605, 5.982759, -7.32397, 1.2454102, 0.46109465, -0.44421527, -0.084155895, 0.09054748
1566315788777, 9.602406, 6.090535, -7.31439, 1.2693604, 0.40646785, -0.3685815, -0.13422333, 0.10652645
1566315788778, 9.650615, 6.241421, -7.2545147, 1.2454102, 0.36980638, -0.29507825, -0.18961707, 0.11717909
1566315788788, 9.787888, 6.382727, -7.3000197, 1.331631, 0.34152818, -0.20772657, -0.24394555, 0.11824436
1566315788789, 9.778218, 6.440208, -7.2593045, 1.1999048, 0.3445303, -0.13635385, -0.2908172, 0.12463594
1566315788801, 9.653464, 6.4258375, -7.1203933, 1.094524, 0.36853993, -0.06391586, -0.34088463, 0.12463594
1566315788802, 9.58375, 6.327642, -7.1251836, 1.0202783, 0.4090255, -0.0063915867, -0.386691, 0.13315806
1566315788810, 9.473997, 6.2869267, -7.031778, 0.8861573, 0.45149246, 0.046871636, -0.4250405, 0.14487597
1566315788811, 9.331351, 6.262976, -6.8808913, 0.7089258, 0.49394393, 0.111852765, -0.45380265, 0.15978967
1566315788820, 9.344502, 6.2605815, -6.9096317, 0.6179151, 0.5261716, 0.15126756, -0.47723848, 0.16192019
1566315788821, 9.099775, 6.104905, -6.7395854, 0.33769777, 0.5568236, 0.18322548, -0.49002165, 0.19068234
1566315788828, 9.134269, 6.1599903, -6.744375, 0.05269043, 0.5650934, 0.19600865, -0.4889564, 0.20453078
1566315788829, 8.951733, 5.9875493, -6.6533647, -0.12454102, 0.5750031, 0.20453078, -0.4825648, 0.23648871
1566315788838, 8.888544, 6.023474, -6.5288234, -0.31374758, 0.5857841, 0.19600865, -0.48469532, 0.26418558
1566315788840, 8.906673, 6.06419, -6.5048733, -0.49097902, 0.57401645, 0.19707392, -0.4612595, 0.2790993
1566315788851, 8.957185, 6.1767554, -6.449788, -0.69216067, 0.56558824, 0.17576863, -0.43995422, 0.3089267
1566315788853, 8.931496, 6.198311, -6.382727, -0.7831714, 0.549314, 0.15978967, -0.41225734, 0.32597092
1566315788861, 9.016469, 6.2845316, -6.4066777, -0.86939216, 0.53131926, 0.13422333, -0.386691, 0.3387541
1566315788862, 8.978428, 6.2965064, -6.303692, -1.1088941, 0.50455993, 0.10333065, -0.3334278, 0.36432046
1566315788872, 9.050544, 6.430628, -6.2917166, -0.9867481, 0.48021337, 0.07882957, -0.30146983, 0.3653857
1566315788873, 9.075405, 6.5048733, -6.231841, -1.101709, 0.46174392, 0.056459017, -0.25885928, 0.37816888
1566315788881, 9.16974, 6.564749, -6.3132715, -1.0633887, 0.4337406, 0.03089267, -0.20026971, 0.3834952
1566315788882, 9.132343, 6.5240335, -6.2917166, -1.1184741, 0.4204989, 0.0031957934, -0.14061491, 0.39627838
1566315788891, 9.094011, 6.473738, -6.3012967, -1.0418335, 0.4114859, -0.023435818, -0.0958738, 0.39947417
1566315788893, 9.131817, 6.5144534, -6.3012967, -1.1160791, 0.43070027, -0.056459017, -0.066046394, 0.42184472
1566315788901, 9.074615, 6.4330225, -6.320457, -1.0083033, 0.44673082, -0.070307456, -0.04474111, 0.43888897
1566315788903, 8.978729, 6.3084817, -6.320457, -0.93405765, 0.45995992, -0.07669904, -0.026631612, 0.4527374
1566315788908, 8.943887, 6.2941117, -6.3012967, -0.81909674, 0.4887707, -0.09161274, -0.026631612, 0.479369
1566315788909, 9.013093, 6.4186525, -6.2965064, -0.62510014, 0.5022098, -0.080960095, -0.017044231, 0.49534798
1566315788918, 9.015189, 6.4258375, -6.2989016, -0.55324954, 0.5412099, -0.07243799, -0.023435818, 0.535828
1566315788919, 9.141859, 6.605464, -6.303692, -0.4526587, 0.5391459, -0.05539375, -0.040480047, 0.53476274
1566315788929, 9.216282, 6.725215, -6.2917166, -0.3544629, 0.5545661, -0.037284255, -0.053263225, 0.55074173
1566315788930, 9.37692, 6.8497562, -6.3875175, -0.45505372, 0.5583713, -0.011717909, -0.06924219, 0.5539375
1566315788939, 9.547537, 7.046148, -6.430628, -0.39278322, 0.55945045, 0.015978966, -0.07669904, 0.5539375
1566315788940, 9.558424, 7.065308, -6.4186525, -0.49576905, 0.5594373, 0.029827405, -0.1107875, 0.5475459
1566315788953, 9.691314, 7.1275783, -6.5360084, -0.6322852, 0.5791885, 0.04580637, -0.1257012, 0.5635249
1566315788954, 9.990003, 7.3838453, -6.6821046, -0.7927515, 0.5903689, 0.05006743, -0.15765914, 0.56672066
1566315788963, 10.224309, 7.568262, -6.8018556, -0.9963282, 0.58246595, 0.041545313, -0.16831179, 0.55606806
1566315788964, 10.584105, 7.8412943, -7.0102224, -1.1807446, 0.57891905, 0.03089267, -0.18855181, 0.54648066
1566315788974, 11.02084, 8.092772, -7.34313, -1.4298267, 0.56419504, 0.0031957934, -0.1949434, 0.5294364
1566315788974, 11.439586, 8.411309, -7.563472, -1.705254, 0.568946, -0.026631612, -0.21198763, 0.5273059
1566315788983, 11.970911, 8.770562, -7.903565, -1.9782863, 0.5615662, -0.0777643, -0.21624869, 0.5123922
1566315788984, 12.477753, 9.129815, -8.193362, -2.2824538, 0.5605336, -0.14807177, -0.21411815, 0.49641323
1566315788994, 12.930661, 9.381292, -8.56938, -2.3998096, 0.55230033, -0.21731395, -0.20026971, 0.46658584
1566315788994, 13.493391, 9.704619, -9.002879, -2.6153615, 0.5717643, -0.30466563, -0.16192019, 0.45593318
1566315789003, 13.904397, 9.941727, -9.335787, -2.7087672, 0.6094691, -0.39840892, -0.12783173, 0.44315
1566315789004, 14.183774, 10.011182, -9.690249, -2.6560767, 0.65305924, -0.48363006, -0.060720075, 0.4346279
1566315789010, 14.154183, 9.946517, -9.7142, -2.6536818, 0.6964752, -0.5581986, 0.002130529, 0.4165184
1566315789011, 14.064676, 9.917776, -9.685459, -2.3758595, 0.7679411, -0.64555025, 0.06924219, 0.4101268
1566315789020, 13.685374, 9.77647, -9.359736, -2.0261867, 0.82686895, -0.70200926, 0.13848437, 0.41438788
1566315789021, 13.152795, 9.529783, -8.914263, -1.6477735, 0.8738637, -0.74781567, 0.19920446, 0.40586576
1566315789035, 12.653308, 9.359736, -8.440049, -1.1256592, 0.8896616, -0.7584683, 0.24501082, 0.39521313
1566315789038, 12.063694, 9.1202345, -7.8772197, -0.5508545, 0.87978524, -0.737163, 0.2876214, 0.38456047
1566315789039, 11.558266, 8.772957, -7.5251517, -0.028740235, 0.8533639, -0.7030745, 0.33662358, 0.3472762
1566315789041, 11.280485, 8.715476, -7.1443434, 0.4981641, 0.82996684, -0.6562029, 0.3834952, 0.3334278
1566315789052, 10.935261, 8.57417, -6.71803, 0.9651929, 0.78397745, -0.5773733, 0.43995422, 0.29614353
1566315789053, 10.56955, 8.406519, -6.2965064, 1.1831397, 0.71871334, -0.48043427, 0.47617322, 0.2428803
1566315789061, 10.16692, 8.152647, -5.9180937, 1.3699512, 0.6841428, -0.37923414, 0.53263223, 0.20133498
1566315789062, 9.848504, 7.941885, -5.5803957, 1.6669337, 0.62759453, -0.2609898, 0.5550028, 0.13315806
1566315789074, 9.492273, 7.7359133, -5.213958, 1.7531544, 0.58032763, -0.13954964, 0.5581986, 0.07563378
1566315789075, 9.425382, 7.7383084, -5.0534916, 1.8489552, 0.55188924, -0.008522116, 0.551807, 0.004261058
1566315789085, 9.191656, 7.6209526, -4.8666797, 1.6501685, 0.55450463, 0.12357068, 0.535828, -0.07137272
1566315789086, 9.280057, 7.6425076, -5.015171, 1.5998731, 0.5866513, 0.25992453, 0.50173956, -0.15765914
1566315789093, 9.381708, 7.709568, -5.1947975, 1.2621753, 0.653477, 0.38456047, 0.4708469, -0.2396845
1566315789094, 9.328352, 7.6041875, -5.343289, 0.80233157, 0.74719095, 0.4889564, 0.4644553, -0.32170987
1566315789104, 9.355105, 7.4844365, -5.606741, 0.2562671, 0.8237987, 0.5773733, 0.42184472, -0.40906155
1566315789105, 9.403387, 7.278465, -5.9252787, -0.58198977, 0.908861, 0.6466155, 0.40053943, -0.49747851
1566315789114, 9.408109, 7.1563187, -6.006709, -1.104104, 0.9521706, 0.6764429, 0.37710363, -0.5539375
1566315789115, 9.586671, 7.0030375, -6.2725563, -1.8753004, 1.0057017, 0.69987875, 0.34621096, -0.63383234
1566315789120, 9.803796, 6.835386, -6.595884, -2.4261549, 1.0208508, 0.6988135, 0.30786142, -0.6775082
1566315789123, 9.886786, 6.543194, -6.7803006, -2.9937747, 1.0198331, 0.67005134, 0.2545982, -0.7254451
1566315789131, 10.16335, 6.3851223, -7.0341725, -3.6116896, 0.9824176, 0.6061355, 0.20026971, -0.74675035
1566315789131, 10.434235, 6.1647806, -7.3814507, -4.047583, 0.9275983, 0.5251754, 0.1257012, -0.75420725
1566315789141, 10.718597, 5.992339, -7.676038, -4.478687, 0.85798246, 0.41864893, 0.040480047, -0.74781567
1566315789142, 11.139518, 5.961204, -8.01613, -4.9289503, 0.79575825, 0.30466563, -0.011717909, -0.7350325
1566315789155, 11.468392, 5.9324636, -8.298743, -5.240303, 0.72097945, 0.15446335, -0.040480047, -0.7030745
1566315789156, 11.823623, 6.0210795, -8.57417, -5.479805, 0.6837114, 0.004261058, -0.06391586, -0.680704
1566315789165, 12.081757, 6.09772, -8.832832, -5.5468655, 0.66674066, -0.15020229, -0.07243799, -0.64555025
1566315789166, 12.196164, 6.09772, -9.0004835, -5.527705, 0.6819872, -0.30466563, -0.0479369, -0.608266
1566315789175, 12.1970005, 6.1959157, -9.079519, -5.2858086, 0.7402024, -0.45593318, -0.041545313, -0.5816344
1566315789176, 12.2144375, 6.3060865, -9.14179, -5.0846267, 0.818465, -0.5944176, -0.013848438, -0.56245965
1566315789185, 12.062322, 6.440208, -9.086704, -4.631968, 0.89653003, -0.71585774, 0.027696876, -0.5390238
1566315789185, 11.815432, 6.231841, -9.072334, -4.296665, 0.9742692, -0.83729786, 0.06178534, -0.49428272
1566315789195, 11.636011, 6.239026, -9.062755, -3.786526, 1.0455157, -0.93636745, 0.10652645, -0.4527374
1566315789196, 11.3233, 6.143225, -8.943004, -3.2404616, 1.1063375, -1.0162623, 0.17044231, -0.40266997
1566315789205, 11.080844, 6.0114994, -8.921448, -2.6560767, 1.1535835, -1.0769824, 0.22583607, -0.34621096
1566315789206, 10.728928, 5.815108, -8.770562, -2.090852, 1.1738561, -1.1057445, 0.28442562, -0.2727077
1566315789216, 10.439893, 5.640271, -8.669971, -1.4178516, 1.1795517, -1.1089402, 0.34088463, -0.2130529
1566315789217, 9.9560585, 5.3001785, -8.399334, -0.6945557, 1.1489958, -1.0759171, 0.38242993, -0.12783173
1566315789223, 9.566243, 5.108577, -8.087981, -0.0023950196, 1.1028497, -1.0183928, 0.42077947, -0.04580637
1566315789224, 9.221433, 4.9217653, -7.7622585, 0.74724615, 1.0237824, -0.9214538, 0.44421527, 0.041545313
1566315789233, 8.831826, 4.775669, -7.311995, 1.3148658, 0.93356377, -0.813862, 0.44208476, 0.11717909
1566315789234, 8.53061, 4.648733, -6.9551373, 1.6693287, 0.8227656, -0.6775082, 0.4261058, 0.19068234
1566315789242, 8.268564, 4.512217, -6.631809, 2.0070264, 0.7155049, -0.5336975, 0.39734364, 0.26312032
1566315789243, 8.151419, 4.629573, -6.325247, 2.2369483, 0.60801595, -0.37710363, 0.34514567, 0.3291667
1566315789255, 8.184037, 4.88584, -6.1552005, 2.2848487, 0.51194024, -0.20772657, 0.28549087, 0.37071204
1566315789256, 8.230534, 5.0439115, -6.1312504, 2.1698878, 0.4740379, -0.043675844, 0.22796659, 0.4133226
1566315789265, 8.331669, 5.4366946, -5.958809, 2.0860622, 0.48194358, 0.1257012, 0.17150758, 0.43249738
1566315789266, 8.449831, 5.6354814, -6.016289, 1.8561403, 0.54229707, 0.29507825, 0.10759171, 0.44208476
1566315789275, 8.608975, 5.968389, -5.982759, 1.6429834, 0.6471988, 0.4612595, 0.04580637, 0.45167214
1566315789277, 8.598503, 6.13604, -5.9133034, 1.1472144, 0.75965905, 0.6135923, -0.020240024, 0.44741106
1566315789282, 8.543024, 6.1863356, -5.8438478, 0.7496411, 0.86219126, 0.74035877, -0.10013486, 0.43036684
1566315789283, 8.613369, 6.325247, -5.839058, 0.2945874, 0.9570558, 0.84155893, -0.17257284, 0.42184472
1566315789292, 8.597057, 6.373147, -5.7552323, -0.41194338, 1.0335201, 0.9193232, -0.25353295, 0.39840892
1566315789293, 8.737454, 6.423443, -5.839058, -0.99393314, 1.0989529, 0.9779128, -0.32170987, 0.38456047
1566315789302, 8.862185, 6.473738, -5.8342676, -1.6094532, 1.1349351, 1.0066749, -0.38775626, 0.35260254
1566315789303, 9.0168, 6.480923, -5.865403, -2.2129982, 1.1532761, 1.0066749, -0.46019423, 0.32384038
1566315789312, 9.346002, 6.600674, -6.0258694, -2.7327175, 1.1403232, 0.9736517, -0.5113269, 0.30146983
1566315789318, 9.499768, 6.569539, -6.0043144, -3.3218923, 1.1141348, 0.9150622, -0.56459016, 0.29188246
1566315789323, 9.741179, 6.5455885, -6.071375, -3.896697, 1.0468992, 0.8181231, -0.588026, 0.28442562
1566315789324, 10.02238, 6.5096636, -6.210286, -4.416416, 0.97018695, 0.71159667, -0.5954828, 0.28336033
1566315789337, 10.121573, 6.4928985, -6.2581863, -4.5960426, 0.87728524, 0.58483016, -0.5933523, 0.27483824
1566315789338, 10.310698, 6.5336137, -6.2749515, -4.9241605, 0.79662484, 0.45167214, -0.5795039, 0.30786142
1566315789346, 10.428183, 6.5096636, -6.466553, -4.9552956, 0.7078632, 0.30786142, -0.54648066, 0.32810146
1566315789347, 10.452508, 6.595884, -6.478528, -4.87626, 0.63959265, 0.18322548, -0.5070659, 0.34408042
1566315789356, 10.5076065, 6.7898808, -6.447393, -4.768484, 0.60452044, 0.040480047, -0.48469532, 0.35899413
1566315789357, 10.311757, 6.74198, -6.476133, -4.351751, 0.5951778, -0.07350325, -0.45806372, 0.37284255
1566315789366, 10.251969, 6.8976564, -6.454578, -3.9829175, 0.6060606, -0.17470337, -0.4346279, 0.38456047
1566315789368, 10.206506, 7.0916533, -6.461763, -3.4823585, 0.61441755, -0.25353295, -0.39627838, 0.39521313
1566315789376, 10.166128, 7.180269, -6.4593678, -3.173401, 0.62507427, -0.32277513, -0.36218992, 0.39414784
1566315789377, 10.117486, 7.359895, -6.468948, -2.5195606, 0.62561953, -0.36005938, -0.314253, 0.40373522
1566315789386, 10.008502, 7.31439, -6.473738, -2.1818628, 0.62770206, -0.39095205, -0.27803403, 0.4048005
1566315789388, 10.016982, 7.422166, -6.4833183, -1.7938697, 0.6193219, -0.40053943, -0.23435818, 0.4101268
1566315789396, 9.879804, 7.3814507, -6.4162574, -1.3986914, 0.61499906, -0.4101268, -0.18642128, 0.41864893
1566315789398, 9.718461, 7.3000197, -6.318062, -1.1136842, 0.59780324, -0.39840892, -0.13741912, 0.42397526
1566315789407, 9.583433, 7.278465, -6.1743608, -0.86220706, 0.585444, -0.3888215, -0.08522116, 0.4293016
1566315789408, 9.550476, 7.359895, -6.0426345, -0.728086, 0.5583551, -0.36218992, -0.041545313, 0.42290998
1566315789417, 9.5778055, 7.4509063, -6.006709, -0.37122804, 0.5352029, -0.3334278, 0.0010652645, 0.41864893
1566315789418, 9.485552, 7.391031, -5.942044, -0.20118165, 0.50671893, -0.28975195, 0.033023197, 0.41438788
1566315789427, 9.528173, 7.417376, -5.980364, -0.06227051, 0.47424492, -0.24607609, 0.05539375, 0.4016047
1566315789428, 9.67325, 7.606582, -5.975574, -0.06466553, 0.44759747, -0.19920446, 0.08841695, 0.39095205
1566315789434, 9.77618, 7.7071733, -6.013894, 0.07903565, 0.4065139, -0.14061491, 0.08522116, 0.3717773
1566315789436, 9.807126, 7.7502837, -6.006709, 0.17962648, 0.3720336, -0.07669904, 0.08628642, 0.3536678
1566315789445, 9.979823, 7.917935, -6.0689797, 0.26584718, 0.33744177, 0.0031957934, 0.083090626, 0.3270362
1566315789446, 9.993316, 7.9562554, -6.0402393, 0.28261232, 0.32968342, 0.07563378, 0.07882957, 0.3110572
1566315789457, 10.111242, 8.018526, -6.1552005, 0.23231691, 0.3290202, 0.14487597, 0.05752428, 0.28975195
1566315789458, 10.168935, 8.040081, -6.224656, 0.1341211, 0.33429793, 0.20879184, 0.024501082, 0.25992453
1566315789467, 10.21999, 8.042476, -6.3060865, 0.0071850587, 0.36549905, 0.2759035, 0.004261058, 0.2396845
1566315789468, 10.332581, 8.131092, -6.375542, -0.0047900393, 0.3977276, 0.33981937, -0.036218993, 0.2034655
1566315789476, 10.509634, 8.284373, -6.456973, -0.35925296, 0.43902984, 0.39627838, -0.07456851, 0.1736381
1566315789484, 10.580809, 8.349038, -6.4833183, -0.4622388, 0.460177, 0.4293016, -0.10546118, 0.12783173
1566315789485, 10.724812, 8.504715, -6.495293, -0.7089258, 0.5067279, 0.47404268, -0.14913702, 0.099069595
1566315789486, 10.809478, 8.54543, -6.543194, -1.0035132, 0.52418375, 0.49428272, -0.16618125, 0.053263225
1566315789498, 10.83782, 8.509504, -6.607859, -1.1759547, 0.533155, 0.49747851, -0.19068234, 0.020240024
1566315789499, 10.761223, 8.296348, -6.6533647, -1.6453785, 0.5273532, 0.48363006, -0.20985709, -0.0127831735
1566315789508, 10.71342, 8.169412, -6.6461797, -1.9663111, 0.50869805, 0.46019423, -0.21092236, -0.05006743
1566315789509, 10.601148, 8.013736, -6.564749, -2.2513185, 0.46766686, 0.41225734, -0.21198763, -0.06178534
1566315789515, 10.6924715, 8.052056, -6.576724, -2.4980054, 0.4160059, 0.35579833, -0.19707392, -0.08735169
1566315789517, 10.64243, 8.013736, -6.449788, -2.7279274, 0.34791446, 0.28868666, -0.1587244, -0.111852765
1566315789525, 10.585445, 7.9227247, -6.4282327, -2.8213332, 0.28910303, 0.22903186, -0.11930962, -0.12996227
1566315789527, 10.534328, 7.8987746, -6.332432, -2.912344, 0.22409324, 0.14274544, -0.068176925, -0.1587244
1566315789537, 10.540233, 7.90117, -6.3970976, -2.7830129, 0.19220571, 0.07989483, -0.020240024, -0.1736381
1566315789538, 10.483053, 7.8269243, -6.4282327, -2.703977, 0.20202425, 0.0010652645, 0.039414786, -0.19813919
1566315789546, 10.342882, 7.6305327, -6.468948, -2.6273365, 0.24448921, -0.054328486, 0.09054748, -0.22050974
1566315789547, 10.325187, 7.654483, -6.461763, -2.5027955, 0.30279192, -0.12357068, 0.14487597, -0.23542345
1566315789556, 10.196291, 7.4844365, -6.473738, -2.4572902, 0.36465046, -0.1768339, 0.2066613, -0.2428803
1566315789557, 10.120588, 7.311995, -6.581514, -2.3758595, 0.4356085, -0.2428803, 0.25992453, -0.2514024
1566315789569, 9.904348, 7.055728, -6.5719337, -2.2632935, 0.49875996, -0.28442562, 0.32597092, -0.24820662
1566315789570, 9.841637, 7.038963, -6.567144, -2.0453467, 0.5510682, -0.314253, 0.37284255, -0.25672874
1566315789579, 9.652356, 6.947952, -6.480923, -1.7004639, 0.59343356, -0.3334278, 0.42290998, -0.24927188
1566315789580, 9.783219, 6.962322, -6.70366, -1.5160475, 0.6285286, -0.3472762, 0.46019423, -0.25033715
1566315789586, 9.699673, 6.947952, -6.6653395, -1.1759547, 0.6562392, -0.34514567, 0.4910869, -0.26525086
1566315789588, 9.70955, 6.9144216, -6.74198, -1.0059083, 0.65453804, -0.31957933, 0.5091964, -0.25885928
1566315789596, 9.6219845, 6.840176, -6.71324, -0.852627, 0.6632561, -0.31318775, 0.51771855, -0.27164245
1566315789598, 9.585969, 6.799461, -6.715635, -0.74724615, 0.6375401, -0.28868666, 0.50387007, -0.26312032
1566315789609, 9.523154, 6.6844997, -6.75156, -0.6514453, 0.63313013, -0.26525086, 0.5049353, -0.27483824
1566315789610, 9.362399, 6.5336137, -6.67013, -0.68976563, 0.6253392, -0.24607609, 0.5049353, -0.27483824
1566315789619, 9.446887, 6.569539, -6.7491655, -0.73048097, 0.5953151, -0.22796659, 0.479369, -0.2695119
1566315789620, 9.514482, 6.5719337, -6.828201, -0.8430469, 0.58013994, -0.21411815, 0.47297743, -0.25885928
1566315789626, 9.536769, 6.471343, -6.952742, -0.855022, 0.5666486, -0.19813919, 0.46871635, -0.24927188
1566315789628, 9.465612, 6.4210477, -6.8880763, -0.96040285, 0.53466195, -0.18855181, 0.44315, -0.23222765
1566315789636, 9.413298, 6.2917166, -6.940767, -0.92208254, 0.50741714, -0.17150758, 0.42077947, -0.22583607
1566315789638, 9.419413, 6.253396, -6.983877, -0.9196875, 0.48123905, -0.16724652, 0.39947417, -0.20985709
1566315789646, 9.468366, 6.2725563, -7.031778, -0.9268726, 0.44827893, -0.15339808, 0.38029942, -0.18109496
1566315789648, 9.363942, 6.1791506, -6.983877, -0.852627, 0.4212983, -0.13315806, 0.35792887, -0.17789917
1566315789657, 9.51175, 6.2989016, -7.070098, -0.90052736, 0.39064425, -0.113983296, 0.3387541, -0.15765914
1566315789666, 9.497697, 6.1791506, -7.168294, -0.79993653, 0.3687785, -0.0958738, 0.3323625, -0.12783173
1566315789668, 9.394971, 6.0833497, -7.110813, -0.8334668, 0.34926704, -0.09054748, 0.32277513, -0.098004326
1566315789669, 9.262613, 6.0450296, -6.983877, -0.69216067, 0.34554493, -0.07563378, 0.3270362, -0.082025364
1566315789679, 9.2638645, 6.0665846, -6.976692, -0.5843848, 0.33172342, -0.060720075, 0.31957933, -0.06498113
1566315789680, 9.1600895, 6.05461, -6.8593364, -0.44547364, 0.34028655, -0.04474111, 0.33449304, -0.043675844
1566315789691, 9.1568, 6.085745, -6.835386, -0.29698244, 0.32073128, -0.018109497, 0.31957933, -0.020240024
1566315789692, 9.120171, 6.071375, -6.8018556, -0.22513184, 0.31767213, -0.002130529, 0.3174488, -0.011717909
1566315789701, 9.081616, 6.016289, -6.792276, -0.38080812, 0.32512388, 0.011717909, 0.32490566, 0.002130529
1566315789702, 9.133502, 6.080955, -6.8042507, -0.38080812, 0.32516578, 0.007456851, 0.32490566, 0.010652645
1566315789711, 9.179278, 6.05461, -6.8952613, -0.23710695, 0.35075036, 0.03089267, 0.3472762, 0.03834952
1566315789712, 9.180113, 6.100115, -6.856941, -0.21315674, 0.36861688, 0.043675844, 0.35899413, 0.07137272
1566315789717, 9.10186, 5.9947343, -6.847361, -0.14370118, 0.38839373, 0.06178534, 0.37071204, 0.098004326
1566315789718, 9.070229, 5.8749833, -6.9096317, 0.102985844, 0.41766652, 0.096939065, 0.38562572, 0.12783173
1566315789728, 9.017527, 5.9468336, -6.7755103, 0.2083667, 0.44641697, 0.128897, 0.40053943, 0.14913702
1566315789729, 8.968205, 5.958809, -6.696475, 0.2802173, 0.45566803, 0.17150758, 0.386691, 0.16937704
1566315789738, 8.93957, 5.934859, -6.67013, 0.45026368, 0.48186824, 0.21518342, 0.37603834, 0.21092236
1566315789739, 9.068358, 6.013894, -6.7659307, 0.5388794, 0.5117806, 0.26631612, 0.36751625, 0.23648871
1566315789754, 9.125846, 5.9875493, -6.864126, 0.5604346, 0.53511274, 0.31638354, 0.3387541, 0.26738137
1566315789756, 9.333298, 6.1743608, -6.9862723, 0.4239185, 0.5619197, 0.35792887, 0.3110572, 0.30146983
1566315789758, 9.461648, 6.219866, -7.1203933, 0.36883304, 0.5777447, 0.39947417, 0.2759035, 0.31318775
1566315789760, 9.616126, 6.325247, -7.2401443, 0.20357667, 0.6031166, 0.43888897, 0.23435818, 0.34088463
1566315789771, 9.671693, 6.382727, -7.2664895, 0.023950197, 0.60998833, 0.45060685, 0.18642128, 0.36645097
1566315789773, 9.662289, 6.423443, -7.216194, -0.16046631, 0.63645875, 0.47510794, 0.14061491, 0.39947417
1566315789781, 9.895142, 6.5551686, -7.407796, -0.26105714, 0.658061, 0.4857606, 0.10013486, 0.43249738
1566315789782, 10.07141, 6.7563505, -7.4580913, -0.4023633, 0.6680253, 0.49428272, 0.07456851, 0.44315
1566315789791, 10.189501, 6.9096317, -7.479646, -0.37122804, 0.68400925, 0.5028048, 0.036218993, 0.46232477
1566315789793, 10.2984495, 7.0174074, -7.5299416, -0.33769777, 0.7059184, 0.5187838, 0.020240024, 0.47830373
1566315789800, 10.3751955, 7.2257743, -7.436536, -0.36164796, 0.7163886, 0.5294364, -0.0063915867, 0.4825648
1566315789805, 10.452414, 7.36708, -7.4101906, -0.26105714, 0.73268044, 0.5411543, -0.026631612, 0.49321744
1566315789810, 10.3610935, 7.3958206, -7.2521195, -0.24668702, 0.74889004, 0.56245965, -0.05752428, 0.4910869
1566315789812, 10.549997, 7.6257424, -7.288045, -0.18681154, 0.76334363, 0.58056915, -0.080960095, 0.4889564
1566315789819, 10.692088, 7.790999, -7.31918, -0.22513184, 0.77237475, 0.5965481, -0.10439592, 0.479369
1566315789831, 10.750187, 7.8724294, -7.31439, -0.30177248, 0.7592504, 0.5954828, -0.10972224, 0.45806372
1566315789833, 10.925473, 8.157437, -7.2545147, -0.4406836, 0.7532083, 0.60507023, -0.09267801, 0.43888897
1566315789835, 10.82298, 8.1143265, -7.1443434, -0.5029541, 0.7426849, 0.60720074, -0.082025364, 0.41971418
1566315789839, 10.686633, 8.071217, -6.9886675, -0.46702883, 0.7236479, 0.5965481, -0.06924219, 0.40373522
1566315789841, 10.588259, 8.056846, -6.854546, -0.4622388, 0.71451455, 0.5997439, -0.054328486, 0.38456047
1566315789852, 10.564159, 8.052056, -6.809041, -0.6346802, 0.70173115, 0.60293967, -0.0479369, 0.35579833
1566315789854, 10.435184, 8.004155, -6.67013, -0.57959473, 0.69827497, 0.60720074, -0.035153728, 0.34301516
1566315789860, 10.246899, 7.8772197, -6.5336137, -0.51013917, 0.6793799, 0.60293967, -0.024501082, 0.3121225
1566315789862, 10.117714, 7.9394903, -6.2581863, -0.40954837, 0.67366755, 0.608266, -0.022370555, 0.28868666
1566315789873, 10.146748, 7.999366, -6.231841, -0.36164796, 0.675722, 0.62744075, -0.036218993, 0.24820662
1566315789875, 10.111274, 8.023315, -6.1504107, -0.19160157, 0.6776405, 0.6412892, -0.04580637, 0.21411815
1566315789880, 10.203757, 8.0999565, -6.2031007, -0.17004639, 0.7028243, 0.6775082, -0.06924219, 0.1736381
1566315789882, 10.3331995, 8.246053, -6.2270513, -0.038320314, 0.73495525, 0.72011876, -0.07243799, 0.12783173
1566315789893, 10.429273, 8.262817, -6.3635674, 0.023950197, 0.7692035, 0.7584683, -0.09161274, 0.08948222
1566315789895, 10.551593, 8.320298, -6.488108, 0.11496094, 0.81829923, 0.81066626, -0.10546118, 0.036218993
1566315789900, 10.698535, 8.368198, -6.6653395, 0.07185059, 0.88864064, 0.87777793, -0.13848437, 0.0031957934
1566315789902, 10.92765, 8.504715, -6.861731, 0.0023950196, 0.9511428, 0.9353022, -0.16831179, -0.039414786
1566315789913, 11.124789, 8.576566, -7.084468, -0.117355965, 1.0128442, 0.98856544, -0.2066613, -0.07669904
1566315789915, 11.345346, 8.679551, -7.29523, -0.4023633, 1.0534307, 1.0183928, -0.24607609, -0.10972224
1566315789920, 11.543575, 8.684341, -7.558682, -0.8382569, 1.0964475, 1.0471549, -0.29507825, -0.13635385
1566315789923, 11.850962, 8.806487, -7.8365045, -1.2166699, 1.1162335, 1.0503508, -0.33981937, -0.165116
1566315789933, 12.161809, 8.868757, -8.126302, -1.7938697, 1.1245364, 1.0407634, -0.38136467, -0.18961707
1566315789936, 12.560948, 9.0148535, -8.49753, -2.074087, 1.1178833, 1.0130665, -0.42077947, -0.21518342
1566315789941, 13.033136, 9.254355, -8.840017, -2.4644752, 1.0842168, 0.9576728, -0.45486793, -0.22690132
1566315789943, 13.451067, 9.445957, -9.096285, -2.9937747, 1.0287935, 0.8809737, -0.46978164, -0.24820662
1566315789954, 13.755157, 9.580078, -9.244776, -3.4584084, 0.95262104, 0.7882957, -0.4644553, -0.26525086
1566315789956, 14.020532, 9.68067, -9.364527, -3.894302, 0.8553802, 0.6689861, -0.44741106, -0.28975195
1566315789960, 14.182381, 9.800421, -9.378897, -4.138594, 0.74468696, 0.5273059, -0.41758367, -0.31957933
1566315789963, 14.149586, 9.814791, -9.223221, -4.3373804, 0.6373754, 0.38029942, -0.3653857, -0.35792887
1566315789971, 14.078695, 9.843531, -9.048384, -4.409231, 0.550381, 0.22050974, -0.31851408, -0.39095205
1566315789973, 13.8706045, 9.6686945, -8.859178, -4.519402, 0.5077692, 0.06391586, -0.26525086, -0.4282363
1566315789981, 13.48924, 9.620794, -8.50711, -4.126619, 0.52020365, -0.09267801, -0.21518342, -0.4644553
1566315789983, 13.06888, 9.407638, -8.286768, -3.6907253, 0.58829707, -0.23009712, -0.16192019, -0.51665324
1566315789990, 12.585081, 9.139395, -7.9897857, -3.319497, 0.65220463, -0.34834146, -0.10013486, -0.5422196
1566315789992, 12.259659, 8.943004, -7.937095, -2.7063723, 0.72973806, -0.4463458, -0.034088463, -0.5763081
1566315790001, 11.891145, 8.665181, -7.838899, -2.2058132, 0.80875254, -0.5230448, 0.037284255, -0.61572284
1566315790002, 11.648203, 8.459209, -7.831714, -1.6693287, 0.86477035, -0.5784386, 0.09374327, -0.6359629
1566315790011, 11.218718, 7.9849954, -7.790999, -1.1831397, 0.894361, -0.5965481, 0.15659387, -0.64768076
1566315790013, 10.721703, 7.6353226, -7.5035963, -0.5939649, 0.9165769, -0.59761333, 0.22264028, -0.6583334
1566315790024, 10.268113, 7.2449346, -7.2760696, -0.06227051, 0.9174185, -0.5763081, 0.2759035, -0.6583334
1566315790025, 9.85848, 6.828201, -7.101233, 0.37122804, 0.9093871, -0.5294364, 0.32810146, -0.6625945
1566315790034, 9.585631, 6.569539, -6.940767, 0.7424561, 0.87006545, -0.45486793, 0.3536678, -0.65194184
1566315790035, 9.350137, 6.327642, -6.792276, 1.1184741, 0.8496231, -0.37816888, 0.36432046, -0.6679208
1566315790044, 9.197681, 6.119275, -6.74198, 1.3028907, 0.80636156, -0.28442562, 0.35899413, -0.66365975
1566315790045, 9.105383, 5.9204884, -6.7803006, 1.3723463, 0.77481425, -0.18535602, 0.34621096, -0.6679208
1566315790053, 8.878719, 5.695357, -6.68929, 1.2837305, 0.74624115, -0.096939065, 0.33981937, -0.65726817
1566315790055, 8.66744, 5.4534597, -6.6342044, 1.1711646, 0.7332681, -0.010652645, 0.33129725, -0.6540724
1566315790063, 8.450405, 5.2019825, -6.576724, 1.0466236, 0.7191269, 0.066046394, 0.3121225, -0.644485
1566315790065, 8.248023, 5.024751, -6.473738, 0.93405765, 0.709662, 0.13954964, 0.294013, -0.6306366
1566315790075, 8.188085, 4.9457154, -6.488108, 0.6993457, 0.6960743, 0.20026971, 0.25033715, -0.6178534
1566315790077, 8.030214, 4.782854, -6.4330225, 0.4742139, 0.6735109, 0.24714136, 0.21624869, -0.588026
1566315790085, 8.05071, 4.711004, -6.5240335, 0.23950197, 0.67100924, 0.29614353, 0.17789917, -0.5752428
1566315790088, 8.140369, 4.754114, -6.607859, 0.014370117, 0.659901, 0.3334278, 0.13209279, -0.5539375
1566315790093, 8.250458, 4.8307548, -6.686895, -0.13891114, 0.6506019, 0.36432046, 0.07563378, -0.5336975
1566315790095, 8.322046, 4.8091993, -6.7731156, -0.5029541, 0.62105376, 0.36432046, 0.035153728, -0.50173956
1566315790105, 8.382744, 4.711004, -6.8976564, -0.7065308, 0.59362096, 0.36964676, -0.0053263223, -0.4644553
1566315790107, 8.517301, 4.8307548, -6.935977, -1.0490186, 0.566251, 0.34621096, -0.039414786, -0.4463458
1566315790113, 8.583263, 4.897815, -6.940767, -1.2286451, 0.5376463, 0.3323625, -0.06498113, -0.41758367
1566315790115, 8.770783, 5.0534916, -7.031778, -1.3939015, 0.5040907, 0.28868666, -0.083090626, -0.4048005
1566315790124, 8.978418, 5.257068, -7.0916533, -1.6381935, 0.46472397, 0.24927188, -0.09161274, -0.38136467
1566315790127, 9.114344, 5.357659, -7.1874537, -1.6453785, 0.4345561, 0.20453078, -0.09374327, -0.3717773
1566315790133, 9.316144, 5.513335, -7.3072047, -1.7315992, 0.4076067, 0.14913702, -0.08522116, -0.36964676
1566315790135, 9.506527, 5.719307, -7.4030056, -1.6908839, 0.3751032, 0.094808534, -0.066046394, -0.3568636
1566315790144, 9.594019, 5.7863674, -7.436536, -1.8058448, 0.3581222, 0.024501082, -0.04261058, -0.35473305
1566315790147, 9.684008, 5.9396486, -7.431746, -1.8082398, 0.35496172, -0.023435818, -0.01917476, -0.3536678
1566315790153, 9.68966, 5.927674, -7.4772515, -1.6860938, 0.36053342, -0.0958738, 0.013848438, -0.3472762
1566315790155, 9.702835, 5.865403, -7.556287, -1.6262183, 0.3805813, -0.16724652, 0.053263225, -0.33768883
1566315790163, 9.726533, 5.9324636, -7.575447, -1.4226416, 0.40807554, -0.23009712, 0.096939065, -0.32277513
1566315790171, 9.656006, 5.8007374, -7.6233473, -1.214275, 0.44037318, -0.2876214, 0.13315806, -0.3057309
1566315790173, 9.659669, 5.824688, -7.6329274, -1.0585986, 0.45767337, -0.3291667, 0.17044231, -0.26844665
1566315790174, 9.591801, 5.6977515, -7.668853, -0.852627, 0.4856309, -0.3653857, 0.2130529, -0.23861924
1566315790186, 9.474412, 5.6282964, -7.599397, -0.57959473, 0.5041819, -0.39414784, 0.2396845, -0.2034655
1566315790188, 9.615703, 5.704937, -7.7383084, -0.18441652, 0.5111205, -0.4079963, 0.26631612, -0.15446335
1566315790195, 9.533339, 5.604346, -7.711963, 0.038320314, 0.5188177, -0.4261058, 0.2727077, -0.11504856
1566315790197, 9.613705, 5.6498513, -7.776629, 0.16286133, 0.52040976, -0.4314321, 0.28549087, -0.056459017
1566315790206, 9.596492, 5.609136, -7.776629, 0.39278322, 0.51390594, -0.42077947, 0.294013, -0.024501082
1566315790209, 9.666784, 5.7001467, -7.790999, 0.50534916, 0.5083332, -0.41864893, 0.2876214, 0.020240024
1566315790215, 9.643257, 5.8198977, -7.654483, 0.728086, 0.49576932, -0.406931, 0.2790993, 0.0479369
1566315790217, 9.670664, 5.944439, -7.589817, 0.76161623, 0.49422875, -0.39627838, 0.28549087, 0.07563378
1566315790227, 9.695436, 6.016289, -7.537127, 0.9987232, 0.46248797, -0.36432046, 0.26631612, 0.101200126
1566315790229, 9.757559, 6.1144853, -7.510782, 1.1879297, 0.4241666, -0.3270362, 0.24181503, 0.12037488
1566315790235, 9.725138, 6.104905, -7.4509063, 1.3388159, 0.39687926, -0.28336033, 0.22583607, 0.16192019
1566315790237, 9.714135, 6.0737696, -7.4580913, 1.3603711, 0.35998058, -0.25033715, 0.1917476, 0.1736381
1566315790245, 9.849824, 6.1384354, -7.558682, 1.4849122, 0.3224093, -0.19813919, 0.16831179, 0.19068234
1566315790247, 9.867157, 6.2653713, -7.4964113, 1.3819263, 0.29526472, -0.16085494, 0.13954964, 0.20453078
1566315790255, 9.737802, 6.217471, -7.3862405, 1.2693604, 0.27531883, -0.10652645, 0.10013486, 0.23329292
1566315790257, 9.719078, 6.2941117, -7.2832546, 1.341211, 0.26362875, -0.06498113, 0.07243799, 0.24501082
1566315790267, 9.690922, 6.303692, -7.237749, 1.3388159, 0.26175392, -0.007456851, 0.04474111, 0.257794
1566315790269, 9.642332, 6.1959157, -7.2736745, 1.2957057, 0.28732535, 0.053263225, 0.0053263223, 0.28229508
1566315790276, 9.621759, 6.320457, -7.168294, 1.1160791, 0.3342317, 0.10759171, -0.026631612, 0.3153183
1566315790278, 9.540435, 6.222261, -7.1443434, 1.1232642, 0.36996743, 0.16192019, -0.07137272, 0.32490566
1566315790284, 9.471959, 6.351592, -6.964717, 0.9316626, 0.42169407, 0.20026971, -0.098004326, 0.35792887
1566315790287, 9.453905, 6.327642, -6.9886675, 0.7041358, 0.4594613, 0.2247708, -0.13848437, 0.37603834
1566315790294, 9.560238, 6.5312185, -6.964717, 0.48379397, 0.50240517, 0.27164245, -0.18216023, 0.38136467
1566315790296, 9.474222, 6.5192432, -6.871311, 0.21315674, 0.52176976, 0.2759035, -0.21198763, 0.3888215
1566315790304, 9.543137, 6.6342044, -6.8593364, -0.09101075, 0.5433663, 0.27377295, -0.23755397, 0.4048005
1566315790307, 9.609139, 6.6988697, -6.8808913, -0.33769777, 0.5554892, 0.26738137, -0.27057716, 0.4048005
1566315790314, 9.817397, 6.943162, -6.9216065, -0.51492923, 0.567044, 0.25885928, -0.2908172, 0.41225734
1566315790316, 10.008998, 7.1467385, -6.9886675, -0.5125342, 0.56165004, 0.24607609, -0.29294774, 0.4111921
1566315790324, 10.145054, 7.2257743, -7.094048, -0.62031007, 0.5684571, 0.22903186, -0.31318775, 0.41545314
1566315790327, 10.385709, 7.436536, -7.209009, -0.76880133, 0.55895936, 0.2130529, -0.30146983, 0.41971418
1566315790334, 10.363394, 7.4125857, -7.194639, -0.8310718, 0.5447971, 0.18855181, -0.30360037, 0.4111921
1566315790336, 10.333408, 7.4580913, -7.103628, -0.8334668, 0.5243991, 0.1587244, -0.28868666, 0.4079963
1566315790348, 10.370862, 7.5179667, -7.0916533, -0.86220706, 0.50848275, 0.13635385, -0.2727077, 0.406931
1566315790349, 10.321493, 7.556287, -6.981482, -0.8334668, 0.4952231, 0.112918034, -0.26844665, 0.40053943
1566315790358, 10.340449, 7.5874224, -6.967112, -0.9029224, 0.47436813, 0.07456851, -0.27057716, 0.38242993
1566315790359, 10.486771, 7.7862086, -6.983877, -0.7568262, 0.45443863, 0.040480047, -0.25033715, 0.37710363
1566315790370, 10.519233, 7.776629, -7.046148, -0.728086, 0.42952618, 0.013848438, -0.23542345, 0.35899413
1566315790372, 10.683544, 7.9849954, -7.053333, -0.7927515, 0.39696935, -0.011717909, -0.21837921, 0.33129725
1566315790376, 10.66036, 7.9826, -7.0198026, -0.80233157, 0.38184792, -0.04474111, -0.18642128, 0.330232
1566315790378, 10.782886, 8.035291, -7.1443434, -0.8143067, 0.3550864, -0.084155895, -0.15978967, 0.3057309
1566315790388, 10.870939, 8.0305, -7.288045, -0.7568262, 0.3445369, -0.11611383, -0.12996227, 0.2972088
1566315790390, 10.874299, 8.018526, -7.3072047, -0.74724615, 0.33515224, -0.13954964, -0.10652645, 0.28549087
1566315790397, 10.856589, 7.937095, -7.3766603, -0.6730005, 0.33747873, -0.17257284, -0.07882957, 0.2790993
1566315790399, 10.927689, 8.044871, -7.3718705, -0.59156984, 0.33984774, -0.19281286, -0.0628506, 0.2727077
1566315790406, 10.953655, 8.040081, -7.417376, -0.5676197, 0.34795523, -0.2130529, -0.036218993, 0.2727077
1566315790409, 10.9343, 7.9969707, -7.441326, -0.48379397, 0.34827143, -0.21944448, -0.022370555, 0.2695119
1566315790416, 10.904837, 7.9969707, -7.4054008, -0.3520679, 0.3494993, -0.23116238, -0.0063915867, 0.26205507
1566315790419, 10.957116, 8.004155, -7.4772515, -0.28740236, 0.35987338, -0.24074976, -0.007456851, 0.26738137
1566315790426, 10.960963, 8.066426, -7.4125857, -0.35925296, 0.3631989, -0.25566345, -0.00958738, 0.257794
1566315790428, 11.228097, 8.284373, -7.573052, -0.29698244, 0.36325675, -0.2695119, -0.018109497, 0.2428803
1566315790437, 11.35966, 8.459209, -7.573052, -0.364043, 0.36166787, -0.28016454, -0.02876214, 0.22690132
1566315790439, 11.546692, 8.58854, -7.702383, -0.48618898, 0.35099778, -0.28868666, -0.03195793, 0.19707392
1566315790446, 11.751976, 8.705896, -7.8700347, -0.61552006, 0.37030926, -0.3323625, -0.03834952, 0.1587244
1566315790449, 12.050369, 8.928633, -8.052056, -0.8095166, 0.39611366, -0.37284255, -0.039414786, 0.12783173
1566315790457, 12.36386, 9.19448, -8.217313, -0.89573735, 0.4216335, -0.4079963, -0.05219796, 0.09267801
1566315790459, 12.731112, 9.462723, -8.447234, -1.0873389, 0.4625677, -0.45699844, -0.05006743, 0.051132694
1566315790471, 13.212569, 9.637559, -8.954978, -1.223855, 0.50942814, -0.5070659, -0.049002163, 0.0
1566315790478, 13.744701, 9.924961, -9.412427, -1.3483961, 0.5775826, -0.5752428, -0.022370555, -0.046871636
1566315790484, 14.099645, 10.049502, -9.7812605, -1.4609619, 0.65593654, -0.6498113, 0.01917476, -0.08735169
1566315790485, 14.225692, 9.984837, -10.018367, -1.5184424, 0.7112146, -0.69668293, 0.082025364, -0.11717909
1566315790493, 14.150474, 9.716595, -10.197993, -1.3507911, 0.78860945, -0.76272935, 0.14061491, -0.14274544
1566315790495, 13.826902, 9.354947, -10.109378, -1.21188, 0.8562553, -0.8181231, 0.20240025, -0.15126756
1566315790497, 13.360093, 8.931028, -9.8866415, -0.9915381, 0.8979927, -0.850081, 0.25353295, -0.13954964
1566315790499, 12.789116, 8.363408, -9.654325, -0.6394702, 0.9333261, -0.8724516, 0.3089267, -0.12037488
1566315790509, 12.098037, 7.7526784, -9.283096, -0.28740236, 0.9492182, -0.8788432, 0.34621096, -0.09374327
1566315790510, 11.482463, 7.2401443, -8.909473, 0.2203418, 0.94267964, -0.8586032, 0.38456047, -0.05965481
1566315790517, 10.945673, 6.9096317, -8.475974, 0.47181886, 0.923591, -0.83942837, 0.3834952, -0.036218993
1566315790518, 10.461004, 6.6677346, -8.032896, 0.6682105, 0.8893376, -0.793622, 0.40053943, -0.025566347
1566315790527, 10.04133, 6.4258375, -7.6592727, 0.93405765, 0.8426161, -0.7435546, 0.39627838, 0.00958738
1566315790529, 9.666628, 6.2917166, -7.2616997, 1.0609937, 0.7990115, -0.70200926, 0.38136467, 0.0127831735
1566315790537, 9.318074, 6.2821364, -6.7683253, 1.2454102, 0.73453754, -0.62317973, 0.3888215, -0.0031957934
1566315790540, 9.167182, 6.3156667, -6.4976883, 1.3891114, 0.66136885, -0.54648066, 0.3717773, -0.023435818
1566315790548, 9.179963, 6.430628, -6.3779373, 1.4968873, 0.59559906, -0.45912898, 0.3717773, -0.07563378
1566315790551, 9.204997, 6.569539, -6.224656, 1.6813037, 0.543335, -0.36218992, 0.38136467, -0.13635385
1566315790558, 9.362962, 6.71803, -6.3012967, 1.6813037, 0.51273423, -0.25885928, 0.39414784, -0.20133498
1566315790560, 9.4368, 6.8186207, -6.2989016, 1.698069, 0.5268624, -0.16405073, 0.40906155, -0.28868666
1566315790571, 9.492007, 6.7898808, -6.468948, 1.465752, 0.5618349, -0.06178534, 0.4250405, -0.36218992
1566315790573, 9.544288, 6.8976564, -6.485713, 1.2046949, 0.6338225, 0.020240024, 0.44528055, -0.45060685
1566315790578, 9.660256, 6.782696, -6.816226, 0.9244776, 0.7122884, 0.098004326, 0.46019423, -0.53476274
1566315790581, 9.646786, 6.5384035, -7.079678, 0.43349856, 0.76499116, 0.16405073, 0.47297743, -0.5784386
1566315790588, 9.498164, 6.119275, -7.2640944, -0.050295413, 0.7955871, 0.20026971, 0.47617322, -0.60507023
1566315790591, 9.542626, 5.726492, -7.606582, -0.6394702, 0.82611245, 0.21092236, 0.4644553, -0.6498113
1566315790598, 9.742115, 5.53489, -7.927515, -1.1951149, 0.8145004, 0.20453078, 0.4495416, -0.64768076
1566315790601, 9.753874, 5.223538, -8.085587, -1.5735279, 0.79376066, 0.1736381, 0.4165184, -0.6530071
1566315790608, 9.872699, 5.0558863, -8.241262, -1.9974464, 0.7496276, 0.12250541, 0.38456047, -0.6317018
1566315790610, 9.879602, 4.8499146, -8.3179035, -2.2129982, 0.69504976, 0.07669904, 0.34834146, -0.5965481
1566315790618, 10.089084, 4.6822634, -8.590936, -2.4620802, 0.64400584, 0.0010652645, 0.3174488, -0.5603291
1566315790620, 10.1015835, 4.512217, -8.667576, -2.560276, 0.5833196, -0.06711166, 0.27057716, -0.5123922
1566315790629, 10.144502, 4.404441, -8.732242, -2.694397, 0.54314905, -0.15765914, 0.23542345, -0.46339005
1566315790631, 10.215921, 4.4212065, -8.729847, -2.9338992, 0.5385868, -0.2545982, 0.221575, -0.41971418
1566315790639, 10.168286, 4.394861, -8.760982, -2.7063723, 0.5407568, -0.34088463, 0.2066613, -0.3653857
1566315790643, 10.17648, 4.478687, -8.734636, -2.684817, 0.58032864, -0.44421527, 0.1949434, -0.31851408
1566315790653, 10.111759, 4.605623, -8.631651, -2.555486, 0.6326711, -0.535828, 0.21092236, -0.26205507
1566315790654, 9.988909, 4.5840673, -8.528665, -2.454895, 0.7157634, -0.6295713, 0.24501082, -0.23648871
1566315790659, 10.115504, 4.8307548, -8.614885, -2.184258, 0.79708904, -0.7190535, 0.28975195, -0.18535602
1566315790660, 10.054528, 4.912185, -8.562195, -1.9112257, 0.86484444, -0.78296936, 0.3291667, -0.16298546
1566315790670, 9.895671, 4.8523097, -8.495134, -1.4873072, 0.9359286, -0.84581995, 0.3834952, -0.11611383
1566315790672, 9.7585745, 4.7972245, -8.425679, -1.1064991, 0.9993214, -0.88949585, 0.45167214, -0.058589544
1566315790681, 9.529607, 4.7469287, -8.243657, -0.5676197, 1.0415835, -0.9150622, 0.49747851, -0.008522116
1566315790683, 9.215725, 4.512217, -8.035291, -0.059875492, 1.0706867, -0.9139969, 0.5550028, 0.054328486
1566315790691, 9.056083, 4.5649076, -7.810159, 0.41912845, 1.0773164, -0.89162636, 0.59122175, 0.12676647
1566315790693, 8.767746, 4.3709106, -7.551497, 0.86220706, 1.088192, -0.87032104, 0.6263755, 0.18535602
1566315790702, 8.664478, 4.358936, -7.3814507, 1.2597803, 1.0697277, -0.8181231, 0.6412892, 0.25246766
1566315790704, 8.564723, 4.380491, -7.1443434, 1.7675245, 1.040952, -0.75101143, 0.6466155, 0.31851408
1566315790709, 8.611409, 4.488267, -7.0245924, 2.1603076, 0.96952766, -0.6423545, 0.62317973, 0.37284255
1566315790711, 8.47984, 4.416416, -6.832991, 2.3902297, 0.92247903, -0.54435015, 0.6040049, 0.43569317
1566315790722, 8.616463, 4.4571314, -6.8689165, 2.682422, 0.8637351, -0.41545314, 0.58269966, 0.48363006
1566315790724, 8.540805, 4.5696974, -6.638994, 2.8261232, 0.81799966, -0.2908172, 0.5390238, 0.5422196
1566315790730, 8.673072, 4.720584, -6.6485744, 2.955454, 0.77812517, -0.15339808, 0.4910869, 0.5837649
1566315790732, 8.7733555, 4.806804, -6.7491655, 2.8836036, 0.7644369, -0.018109497, 0.43782368, 0.6263755
1566315790742, 8.672089, 4.8307548, -6.6485744, 2.7686427, 0.77727234, 0.11717909, 0.36645097, 0.67537767
1566315790744, 8.696993, 4.9792457, -6.552774, 2.811753, 0.8137602, 0.25885928, 0.28229508, 0.71798825
1566315790751, 8.7161, 5.0343313, -6.6246243, 2.5962012, 0.8788173, 0.39627838, 0.18748654, 0.7616641
1566315790753, 8.720788, 5.257068, -6.5407987, 2.3734643, 0.942051, 0.515588, 0.07243799, 0.7850999
1566315790760, 8.767763, 5.367239, -6.581514, 2.179468, 1.0335003, 0.6306366, -0.053263225, 0.81705785
1566315790762, 8.962353, 5.6857767, -6.6844997, 1.8202149, 1.1289732, 0.7392935, -0.17470337, 0.83516735
1566315790770, 9.026805, 5.934859, -6.6581545, 1.3891114, 1.2224433, 0.8277105, -0.30040458, 0.8479505
1566315790775, 9.188562, 6.11688, -6.7683253, 1.096919, 1.3167415, 0.9054748, -0.4048005, 0.86606
1566315790783, 9.328799, 6.375542, -6.7850904, 0.5843848, 1.3835493, 0.9534117, -0.49960902, 0.8692558
1566315790785, 9.569458, 6.591094, -6.935977, 0.15567628, 1.4361392, 0.9821738, -0.56885123, 0.87990844
1566315790793, 9.681715, 6.71324, -6.969507, -0.3065625, 1.462889, 0.99282646, -0.6103965, 0.8841695
1566315790795, 9.836365, 6.9000516, -6.964717, -0.79754156, 1.4794298, 0.97258645, -0.6562029, 0.9012137
1566315790802, 10.12333, 7.1084185, -7.1084185, -1.1927198, 1.4755604, 0.9438243, -0.66579026, 0.91825795
1566315790803, 10.333351, 7.321575, -7.1132083, -1.6046631, 1.4505167, 0.8969527, -0.6711166, 0.9214538
1566315790814, 10.476161, 7.462881, -7.1084185, -1.8776954, 1.4010966, 0.8330368, -0.66152924, 0.91186637
1566315790817, 10.705998, 7.7167535, -7.1132083, -2.1148024, 1.340319, 0.7616641, -0.6402239, 0.89801794
1566315790821, 10.823355, 7.9682302, -6.967112, -2.2608986, 1.2681235, 0.660464, -0.6061355, 0.8969527
1566315790823, 11.038042, 8.157437, -7.038963, -2.3974147, 1.177721, 0.5635249, -0.5635249, 0.8671253
1566315790835, 11.196341, 8.3179035, -7.082073, -2.4525, 1.0847081, 0.46658584, -0.50600064, 0.8383631
1566315790838, 11.236036, 8.368198, -7.0509377, -2.550696, 0.98889655, 0.35792887, -0.43888897, 0.81066626
1566315790841, 11.357368, 8.614885, -6.952742, -2.5363257, 0.9146516, 0.25246766, -0.37816888, 0.793622
1566315790843, 11.429128, 8.703502, -6.969507, -2.5099807, 0.8369522, 0.14274544, -0.3057309, 0.76592517
1566315790854, 11.409078, 8.744217, -6.940767, -2.3519094, 0.7671953, 0.04474111, -0.22583607, 0.7318367
1566315790857, 11.306467, 8.741821, -6.854546, -2.1052222, 0.7296914, -0.04474111, -0.15020229, 0.7126619
1566315790862, 11.327198, 8.770562, -6.943162, -1.7818946, 0.69611996, -0.111852765, -0.08522116, 0.68176925
1566315790864, 11.373753, 8.919053, -6.9144216, -1.4154567, 0.670494, -0.17257284, -0.017044231, 0.64768076
1566315790874, 11.350736, 8.954978, -6.8856816, -1.1112891, 0.64972925, -0.20985709, 0.06498113, 0.6114618
1566315790878, 11.243413, 8.837623, -6.9024467, -0.8167017, 0.6422697, -0.23116238, 0.1257012, 0.5858955
1566315790882, 11.182255, 8.813672, -6.864126, -0.49576905, 0.6414485, -0.24927188, 0.20026971, 0.55606806
1566315790884, 11.170941, 8.808882, -6.8665214, -0.21076173, 0.6313173, -0.24607609, 0.24714136, 0.52624065
1566315790891, 11.085767, 8.734636, -6.825806, 0.09340577, 0.6245994, -0.23329292, 0.28975195, 0.50173956
1566315790894, 11.017874, 8.643626, -6.825806, 0.29937744, 0.61284196, -0.19707392, 0.3174488, 0.4857606
1566315790901, 10.926524, 8.581355, -6.744375, 0.5125342, 0.5901469, -0.14807177, 0.32810146, 0.4676511
1566315790904, 10.793932, 8.432864, -6.6916847, 0.78556645, 0.5644796, -0.10013486, 0.32490566, 0.45060685
1566315790911, 10.672888, 8.370594, -6.550379, 0.96758795, 0.52418375, -0.029827405, 0.30679616, 0.42397526
1566315790913, 10.492997, 8.207732, -6.452183, 1.0514137, 0.4920876, 0.03195793, 0.27483824, 0.406931
1566315790922, 10.456636, 8.229287, -6.346802, 1.1567944, 0.46219835, 0.112918034, 0.2247708, 0.38775626
1566315790923, 10.426428, 8.258028, -6.222261, 1.341211, 0.44029716, 0.19068234, 0.1736381, 0.3568636
1566315790931, 10.486272, 8.320298, -6.253396, 1.2765454, 0.4349802, 0.27377295, 0.11611383, 0.3174488
1566315790937, 10.557033, 8.449629, -6.222261, 1.1567944, 0.45906594, 0.36432046, 0.06498113, 0.27164245
1566315790944, 10.658928, 8.57417, -6.241421, 1.0681788, 0.48041067, 0.42717105, 0.0127831735, 0.21944448
1566315790945, 10.655609, 8.641231, -6.1767554, 0.847837, 0.53247136, 0.5070659, -0.039414786, 0.15765914
1566315790953, 10.747023, 8.696317, -6.2869267, 0.5891748, 0.57446206, 0.5592638, -0.07669904, 0.10652645
1566315790955, 10.658434, 8.6077, -6.2797413, 0.27303225, 0.6007346, 0.588026, -0.10972224, 0.05539375
1566315790966, 10.600853, 8.485555, -6.353987, -0.016765138, 0.6398294, 0.6221144, -0.14913702, 0.010652645
1566315790968, 10.5183525, 8.370594, -6.365962, -0.2083667, 0.658411, 0.6359629, -0.16937704, -0.01917476
1566315790976, 10.343301, 8.145462, -6.356382, -0.48139894, 0.6714936, 0.64341974, -0.18002969, -0.06711166
1566315790979, 10.245663, 8.037686, -6.3228517, -0.62510014, 0.67220974, 0.63915867, -0.18642128, -0.09267801
1566315790983, 10.108911, 7.810159, -6.361172, -0.852627, 0.6740355, 0.6327671, -0.19387813, -0.12783173
1566315790985, 9.995647, 7.690408, -6.3132715, -0.95561284, 0.66467553, 0.61678815, -0.19281286, -0.1555286
1566315790993, 10.018003, 7.671248, -6.339617, -1.1496094, 0.65665495, 0.6040049, -0.18429075, -0.18002969
1566315790995, 9.940858, 7.556287, -6.318062, -1.343606, 0.62917554, 0.5699165, -0.17470337, -0.20133498
1566315791006, 9.946292, 7.429351, -6.454578, -1.4394068, 0.60866886, 0.54648066, -0.15978967, -0.21518342
1566315791008, 9.919867, 7.3551054, -6.478528, -1.5280225, 0.56414074, 0.49641323, -0.13741912, -0.23009712
1566315791014, 9.852111, 7.175479, -6.557564, -1.6046631, 0.52096003, 0.4527374, -0.113983296, -0.23116238
1566315791016, 9.868185, 7.1539235, -6.557564, -1.7890797, 0.47287303, 0.40373522, -0.098004326, -0.22583607
1566315791024, 9.850775, 7.094048, -6.591094, -1.8082398, 0.42011148, 0.34621096, -0.060720075, -0.23009712
1566315791026, 9.750718, 7.0006423, -6.4976883, -1.961521, 0.3685846, 0.2908172, -0.035153728, -0.22370553
1566315791034, 9.789634, 7.0150127, -6.5384035, -1.9687061, 0.3127345, 0.2247708, -0.007456851, -0.21731395
1566315791036, 9.731048, 7.0054326, -6.473738, -1.9255958, 0.27579653, 0.17044231, 0.026631612, -0.21518342
1566315791043, 9.816871, 7.070098, -6.5096636, -2.0022364, 0.24515668, 0.101200126, 0.035153728, -0.22050974
1566315791045, 9.787316, 7.1275783, -6.437813, -1.8824854, 0.23514614, 0.043675844, 0.06178534, -0.22264028
1566315791053, 9.76642, 7.1323686, -6.4186525, -1.8202149, 0.26205721, -0.010652645, 0.08948222, -0.24607609
1566315791060, 9.771548, 7.237749, -6.332432, -1.7315992, 0.277646, -0.0628506, 0.096939065, -0.25246766
1566315791063, 9.840978, 7.3622904, -6.2989016, -1.7220191, 0.32340735, -0.11930962, 0.11930962, -0.2759035
1566315791065, 9.8379755, 7.5131764, -6.1887307, -1.4274317, 0.37382588, -0.16937704, 0.13741912, -0.30360037
1566315791074, 9.975643, 7.537127, -6.361172, -1.4968873, 0.4193883, -0.19707392, 0.16085494, -0.3334278
1566315791077, 10.00609, 7.6257424, -6.332432, -1.3675562, 0.48340595, -0.24714136, 0.18109496, -0.37390783
1566315791085, 10.044322, 7.685618, -6.365962, -1.1376343, 0.5414981, -0.2790993, 0.21092236, -0.4133226
1566315791088, 9.97014, 7.654483, -6.3060865, -1.0226734, 0.59314287, -0.30999196, 0.2396845, -0.44528055
1566315791097, 9.880975, 7.5059915, -6.346802, -1.0059083, 0.64414775, -0.34408042, 0.26418558, -0.47617322
1566315791099, 9.803242, 7.446116, -6.320457, -0.8430469, 0.6860253, -0.35473305, 0.28868666, -0.5113269
1566315791104, 9.697143, 7.311995, -6.337222, -0.6394702, 0.72664857, -0.37710363, 0.2972088, -0.5454154
1566315791107, 9.631295, 7.2185893, -6.349197, -0.5843848, 0.75023514, -0.3898868, 0.3206446, -0.5550028
1566315791115, 9.563919, 7.048543, -6.4330225, -0.6346802, 0.7851418, -0.41438788, 0.3355583, -0.5763081
1566315791117, 9.526142, 6.919212, -6.5264287, -0.52690434, 0.8036536, -0.42397526, 0.350472, -0.5858955
1566315791125, 9.608626, 6.8952613, -6.6605496, -0.6466553, 0.8289606, -0.44421527, 0.35899413, -0.60080916
1566315791127, 9.674583, 6.8904715, -6.7683253, -0.5556446, 0.84771824, -0.45380265, 0.37603834, -0.60933125
1566315791135, 9.839869, 6.8928666, -6.998247, -0.57959473, 0.87239695, -0.4708469, 0.3920173, -0.62104917
1566315791137, 9.928622, 6.9096317, -7.103628, -0.61073, 0.9029685, -0.49002165, 0.4165184, -0.63383234
1566315791147, 10.140942, 6.9168167, -7.3958206, -0.5460645, 0.9223997, -0.5028048, 0.43995422, -0.6359629
1566315791150, 10.16175, 6.823411, -7.510782, -0.5388794, 0.9316266, -0.515588, 0.46232477, -0.62317973
1566315791155, 10.177169, 6.6773148, -7.6664577, -0.4622388, 0.94389164, -0.5305017, 0.47723848, -0.6178534
1566315791159, 10.093217, 6.5240335, -7.692803, -0.36164796, 0.9335273, -0.5390238, 0.48363006, -0.58909124
1566315791164, 10.02206, 6.337222, -7.7574687, -0.32093263, 0.90435433, -0.531567, 0.47297743, -0.5581986
1566315791167, 9.852846, 6.085745, -7.7454934, -0.22273682, 0.87470216, -0.531567, 0.46552056, -0.515588
1566315791174, 9.903834, 6.0522146, -7.838899, -0.09101075, 0.8224228, -0.52624065, 0.42397526, -0.46871635
1566315791177, 9.933169, 5.985154, -7.927515, -0.016765138, 0.770128, -0.52837116, 0.36751625, -0.42290998
1566315791185, 10.010285, 5.982759, -8.025711, 0.019160157, 0.71780646, -0.52624065, 0.31638354, -0.3717773
1566315791187, 10.064552, 6.085745, -8.01613, 0.023950197, 0.6614983, -0.51771855, 0.25566345, -0.32277513
1566315791195, 10.29727, 6.236631, -8.193362, -0.083825685, 0.6247147, -0.5219796, 0.20559604, -0.27483824
1566315791196, 10.539289, 6.5360084, -8.267608, 0.06227051, 0.59285194, -0.5187838, 0.16405073, -0.23542345
1566315791205, 10.808932, 6.8904715, -8.327483, 0.086220704, 0.57238317, -0.52624065, 0.1107875, -0.19600865
1566315791206, 11.208292, 7.237749, -8.557405, 0.10777588, 0.55371827, -0.51665324, 0.08522116, -0.18002969
1566315791215, 11.603377, 7.6425076, -8.727451, 0.24908204, 0.526259, -0.49641323, 0.068176925, -0.16085494
1566315791216, 11.7580805, 7.8532696, -8.744217, 0.3424878, 0.51682895, -0.4857606, 0.04580637, -0.17044231
1566315791227, 12.083885, 8.164622, -8.8951025, 0.48618898, 0.5006675, -0.46978164, 0.013848438, -0.17257284
1566315791228, 12.133059, 8.270002, -8.859178, 0.57719976, 0.48410496, -0.45380265, 0.00958738, -0.16831179
1566315791235, 12.196495, 8.344249, -8.871153, 0.6562354, 0.46588117, -0.43356264, -0.004261058, -0.17044231
1566315791237, 12.183952, 8.523875, -8.677156, 0.7065308, 0.4483599, -0.4133226, -0.0063915867, -0.1736381
1566315791245, 12.166445, 8.523875, -8.655601, 0.6682105, 0.43287635, -0.39414784, 0.0010652645, -0.17896444
1566315791247, 11.954261, 8.382568, -8.485555, 0.7951465, 0.4221486, -0.38029942, 0.0031957934, -0.18322548
1566315791258, 11.795132, 8.353828, -8.289163, 0.7927515, 0.40452147, -0.3536678, 0.011717909, -0.19600865
1566315791260, 11.510549, 8.293953, -7.92991, 0.9053174, 0.40471917, -0.34194988, 0.03195793, -0.21411815
1566315791268, 11.323346, 8.186177, -7.7574687, 1.0130934, 0.38413826, -0.30146983, 0.06498113, -0.22903186
1566315791270, 11.018976, 7.9394903, -7.573052, 1.0154883, 0.37541014, -0.26844665, 0.08522116, -0.24820662
1566315791278, 10.815977, 7.8820095, -7.3000197, 1.2525953, 0.36356276, -0.21624869, 0.12037488, -0.26631612
1566315791280, 10.416638, 7.5946074, -7.0102224, 1.2981006, 0.35847378, -0.15126756, 0.13848437, -0.294013
1566315791287, 10.292085, 7.4964113, -6.8928666, 1.4897022, 0.35883602, -0.096939065, 0.13635385, -0.3174488
1566315791289, 10.025941, 7.2904396, -6.6916847, 1.6094532, 0.36663672, -0.023435818, 0.12144015, -0.34514567
1566315791297, 9.82291, 7.1467385, -6.550379, 1.583108, 0.39661473, 0.06711166, 0.113983296, -0.37390783
1566315791299, 9.744483, 7.0437527, -6.5312185, 1.6381935, 0.43300217, 0.14061491, 0.094808534, -0.39840892
1566315791307, 9.574428, 6.7874856, -6.557564, 1.6118482, 0.5071252, 0.23755397, 0.066046394, -0.44315
1566315791310, 9.521477, 6.7755103, -6.5216384, 1.4897022, 0.5634081, 0.3270362, 0.025566347, -0.45806372
1566315791317, 9.418084, 6.576724, -6.598279, 1.3819263, 0.65711105, 0.4293016, 0.0031957934, -0.49747851
1566315791320, 9.341764, 6.4138627, -6.6533647, 1.3651612, 0.7264159, 0.5187838, -0.05006743, -0.50600064
1566315791327, 9.329435, 6.3132715, -6.7803006, 1.099314, 0.81020623, 0.60933125, -0.10226539, -0.52411014
1566315791329, 9.292217, 6.1863356, -6.8761015, 0.8909473, 0.8609242, 0.67005134, -0.1555286, -0.51771855
1566315791337, 9.359307, 6.08814, -7.084468, 0.5843848, 0.9426532, 0.7499462, -0.22690132, -0.52411014
1566315791350, 9.572805, 6.0833497, -7.3886356, 0.19878663, 1.0007869, 0.80107886, -0.29933932, -0.51984906
1566315791352, 9.82149, 6.0761647, -7.7143583, -0.17483643, 1.0489048, 0.83942837, -0.37923414, -0.50173956
1566315791354, 9.885042, 6.006709, -7.8341093, -0.51013917, 1.0905368, 0.8681905, -0.45912898, -0.47404268
1566315791357, 10.056083, 6.0210795, -8.013736, -0.80712163, 1.1273206, 0.8745821, -0.5432849, -0.45912898
1566315791359, 10.383874, 6.2031007, -8.243657, -1.1783496, 1.15204, 0.8745821, -0.6263755, -0.41225734
1566315791370, 10.611055, 6.3012967, -8.418494, -1.4202466, 1.1667622, 0.8607337, -0.6892261, -0.38136467
1566315791372, 10.978063, 6.5336137, -8.629255, -1.8345851, 1.1540192, 0.8266452, -0.72651035, -0.3472762
1566315791378, 11.141918, 6.588699, -8.751402, -2.0357666, 1.1408833, 0.77231675, -0.77870834, -0.314253
1566315791380, 11.419467, 6.9024467, -8.796907, -2.318379, 1.085411, 0.69348717, -0.7819041, -0.29294774
1566315791390, 11.613637, 7.101233, -8.808882, -2.6177564, 1.0443429, 0.61891866, -0.7957525, -0.2727077
1566315791392, 11.699325, 7.2257743, -8.763377, -2.804568, 0.9684385, 0.5251754, -0.7765778, -0.2428803
1566315791398, 11.8133335, 7.3718705, -8.701106, -3.0823903, 0.8888405, 0.4111921, -0.7552725, -0.2247708
1566315791400, 11.880515, 7.486831, -8.641231, -3.2284865, 0.80620605, 0.28336033, -0.721184, -0.22264028
1566315791408, 11.875998, 7.599397, -8.54064, -3.2165112, 0.7194527, 0.14807177, -0.6679208, -0.22264028
1566315791410, 11.829023, 7.671248, -8.425679, -3.175796, 0.6557168, 0.018109497, -0.61572284, -0.2247708
1566315791421, 11.545634, 7.6113725, -8.145462, -3.0033545, 0.621535, -0.11824436, -0.57098174, -0.21518342
1566315791423, 11.246282, 7.455696, -7.9849954, -2.6704469, 0.6023748, -0.23648871, -0.5049353, -0.22796659
1566315791428, 10.923242, 7.407796, -7.676038, -2.3495142, 0.60343355, -0.34514567, -0.44315, -0.22050974
1566315791430, 10.643656, 7.2401443, -7.565867, -1.9040406, 0.6055136, -0.43569317, -0.3685815, -0.20240025
1566315791438, 10.349453, 7.070098, -7.4197707, -1.4394068, 0.6143409, -0.49854377, -0.2972088, -0.20133498
1566315791441, 10.105851, 6.991062, -7.2449346, -0.87418216, 0.6267929, -0.5539375, -0.21624869, -0.19813919
1566315791449, 9.839957, 6.7611403, -7.1323686, -0.49097902, 0.6226706, -0.5795039, -0.12463594, -0.19068234
1566315791451, 9.705456, 6.71324, -7.0078273, 0.13651612, 0.62701017, -0.5965481, -0.05752428, -0.18429075
1566315791458, 9.436159, 6.4186525, -6.8928666, 0.5748047, 0.589124, -0.5613944, 0.015978966, -0.17789917
1566315791460, 9.312172, 6.3132715, -6.7611403, 1.0705738, 0.5476806, -0.51771855, 0.0777643, -0.16085494
1566315791468, 9.034812, 6.100115, -6.5072684, 1.4394068, 0.49935117, -0.4612595, 0.10013486, -0.16298546
1566315791469, 8.95877, 5.8917484, -6.5000834, 1.8154249, 0.42864025, -0.37923414, 0.13528858, -0.1470065
1566315791478, 9.067911, 5.9324636, -6.4976883, 2.193838, 0.3540542, -0.29827404, 0.14061491, -0.128897
1566315791480, 8.9105015, 5.6977515, -6.447393, 2.315984, 0.2653471, -0.19813919, 0.13102753, -0.11824436
1566315791488, 8.833732, 5.5947657, -6.353987, 2.5219557, 0.17475533, -0.08522116, 0.12357068, -0.08948222
1566315791492, 8.825194, 5.49178, -6.4018874, 2.5962012, 0.117782794, 0.036218993, 0.09054748, -0.066046394
1566315791503, 8.74619, 5.43909, -6.3132715, 2.6560767, 0.16671644, 0.15339808, 0.054328486, -0.036218993
1566315791504, 8.671372, 5.352869, -6.344407, 2.5075855, 0.26345867, 0.26312032, 0.011717909, -0.0063915867
1566315791509, 8.62819, 5.391189, -6.349197, 2.2513185, 0.37845838, 0.3749731, -0.0479369, 0.018109497
1566315791510, 8.557881, 5.398374, -6.339617, 1.9758912, 0.48110577, 0.46871635, -0.10333065, 0.033023197
1566315791519, 8.5876465, 5.5061502, -6.3851223, 1.6310084, 0.5578763, 0.531567, -0.16298546, 0.04580637
1566315791520, 8.619919, 5.7839723, -6.2725563, 1.22625, 0.63659865, 0.59761333, -0.2130529, 0.05219796
1566315791529, 8.748638, 5.8917484, -6.3994923, 0.93405765, 0.69973195, 0.6412892, -0.27483824, 0.053263225
